AccelerometerX,AccelerometerY,AccelerometerZ
1.6243453636632417,-0.15323616176709168,4.895166181417871
-0.6117564136500754,-2.432508512647113,2.387958575229506
-0.5281717522634557,0.5079843366153792,-4.481118060935155
-1.0729686221561705,-0.3240323290200066,-6.107950028484128
0.8654076293246785,-1.5110766079102027,-20.299450691852883
-2.3015386968802827,-0.8714220655949576,6.07946586089135
1.74481176421648,-0.8648299414655872,-3.5410888355969
-0.7612069008951028,0.6087490823417022,1.5258149012149536
0.31903909605709857,0.5616380965234054,5.012748490408391
-0.2493703754774101,1.514750382482251,-7.864027706953625
1.462107937044974,0.6479248123129182,10.169956856725697
-2.060140709497654,-1.3516493853176743,1.131105818740288
-0.3224172040135075,-1.4092092764721913,14.96995247661273
-0.38405435466841564,1.130725354529131,1.6893766785627198
1.1337694423354374,1.5666862010961442,3.1862469532000244
-1.0998912673140309,-0.23774809814536352,-2.7337713839561912
-0.17242820755043575,0.5588029881851114,14.76413992844696
-0.8778584179213718,-1.5048912837795123,-21.034927818018268
0.04221374671559283,-1.9439217583317874,-5.328319611205531
0.5828152137158222,-1.1740236765428438,-3.0505399394804513
-1.1006191772129212,-0.3571875256030163,-15.304207351052828
1.1447237098396141,-0.521376385408038,-7.947026517589073
0.9015907205927955,-0.2301140634512672,-21.721227104650144
0.5024943389018682,-0.4910144326991102,1.9038723727463625
0.9008559492644118,0.6793011449496629,-14.052275440762696
-0.6837278591743331,1.4275469513273447,3.6986047372036
-0.12289022551864817,0.036197462760435326,-2.61781695961315
-0.9357694342590688,2.029997487440461,-8.327135127847871
-0.2678880796260159,-0.6344047103008461,-15.537826099971513
0.530355466738186,-0.5251033939389392,-6.828478444517395
-0.691660751725309,0.3877346627429501,3.106238202154705
-0.39675352685597737,-0.35479876201067406,-1.2544719386657144
-0.6871727001195994,1.1770522557766416,6.662437992860967
-0.8452056414987196,-0.6411078151978892,-7.88330268522488
-0.671246130836819,1.32269398510864,16.059935215654782
-0.01266459891890136,0.19417501629377704,-2.379534163645282
-1.1173103486352778,2.5654527807167797,-8.45195429064242
0.23441569781709215,-0.4641149056482057,13.10159231391461
1.6598021771098705,-0.20269390770746232,13.575664779629646
0.7420441605773356,0.14565181728648766,-0.9016931708943248
-0.19183555236161492,-2.1810279670819495,-4.843021166665138
-0.8876289640848363,0.6022651275385377,9.10074638935635
-0.7471582937508376,0.48084611326516874,-8.941369681633937
1.6924546010277466,0.10931836390543528,9.35191541792802
0.05080775477602897,-1.5443957813866982,-13.871805199607891
-0.6369956465693534,-1.5465610399686571,-0.833932729033744
0.19091548466746602,0.5866185186008445,0.1175550719321743
2.100255136478842,1.175178687557355,12.080994611405487
0.12015895248162915,1.5944646318222213,-18.292196337498968
0.6172031097074192,-0.8954415239499194,2.3443672196787664
0.3001703199558275,-1.0307980277587836,-1.2071046677601316
-0.35224984649351865,-0.2719387996845504,0.02908287158088423
-1.1425181980221402,-1.9757301418738367,-8.841055458017946
-0.3493427224128775,-0.5889311760437443,-13.01894830490606
-0.2088942333747781,0.851789637515316,-4.63137061750672
0.5866231911821976,1.634602501369415,-2.4166378467026237
0.8389834138745049,0.2791554536346638,14.75183478308824
0.9311020813035573,1.640553648555269,1.1138164353145052
0.2855873252542588,0.410872937999071,-0.04276254670764191
0.8851411642707281,0.19136391513892,6.983462926143922
-0.7543979409966528,-0.17144118747753334,-16.118546409077904
1.2528681552332879,0.18693704577199538,7.225664471510274
0.5129298204180088,-0.25485294724388907,9.153761413074754
-0.29809283510271567,-0.1409107523901582,9.071438675546178
0.48851814653749703,-0.6618918349396725,-3.329940622799779
-0.07557171302105573,0.2590319017920037,-12.35249995930351
1.131629387451427,0.014448415017786457,-9.849285055946012
1.5198168164221988,-1.479580034616112,2.4745386894671837
2.1855754065331614,-0.24070050175198632,5.367648452373013
-1.3964963354881377,-0.8556713923944985,12.765497755140974
-1.4441138054295894,-2.048200458740775,15.214340450144984
-0.5044658629464512,0.4838836493413234,8.712482808892801
0.16003706944783047,1.5586882545223812,0.339287983914027
0.8761689211162249,2.369730189064904,2.6491995671020137
0.31563494724160523,1.5624195294929633,-2.353123697547818
-2.022201215824003,-0.8708015526080608,10.548684521714893
-0.3062040126283718,1.175244992708054,5.942715493361383
0.8279746426072462,1.1198990035561387,2.158596723606063
0.2300947353643834,-1.9878295313946217,-12.556005380398679
0.7620111803120247,0.8612885153914502,10.466613849577996
-0.22232814261035927,0.6271770353915255,-15.268863656237134
-0.20075806892999745,0.1628082503067918,12.317821873805423
0.1865613909882843,0.2886167156768053,9.846295039767348
0.4100516472082563,0.05830738274408399,-15.870688200862233
0.19829972012676975,1.6319358486550282,-0.4846433604287023
0.11900864580745882,-0.40178883383188707,-12.41394259928706
-0.6706622862890306,-0.19993939322127943,-1.4461931987276866
0.3775637863209194,0.007388983706183854,5.551699735190978
0.12182127099143693,0.2756640751500719,-1.366380997067782
1.1294839079119197,-1.7632498009912314,-13.638680246204355
1.198917879901507,1.3879738095489653,2.608272771892708
0.18515641748394385,0.22619975684315669,2.594877065664214
-0.3752849500901142,0.5691245958247787,-0.27234810560495387
-0.6387304074542224,0.19731599174779044,-10.451389747928104
0.4234943540641129,-0.18644127128388416,-3.4978166203129613
0.07734006834855942,-0.35524151349696165,2.685271684183746
-0.3438536755710756,0.09611414233952063,-1.5504982130166352
0.04359685683424694,0.15205234093342904,21.126221193063365
-0.6200008439481293,1.1552617554181506,2.560794374519645
0.6980320340722189,0.34605774628467395,-2.067613340583698
-0.4471285647859982,-0.13348866936606069,4.825979515241575
1.2245077048054989,1.9865651109424,-11.054323532277287
0.4034916417908,-1.279426156313522,4.207551998530761
0.593578523237067,-1.3402091759035006,16.16794227523432
-1.0949118457410418,0.3546020521128279,-8.837713185733428
0.1693824330586681,-0.21237328549062034,2.988350190684363
0.7405564510962748,-1.7745959882248337,7.671130964448215
-0.9537006018079346,-0.3122296613778122,-16.933487080721044
-0.26621850600362207,-0.7106557706807829,16.388889307188656
0.03261454669335856,1.1311286004249619,-10.449981890682135
-1.3731173202467557,-0.6212517704302448,-3.3505405763656775
0.31515939204229176,1.0506146488672723,3.806721776381166
0.8461606475850334,0.45978170021018383,-2.3260288408099674
-0.8595159408319863,-0.20633091204487983,8.029366671164617
0.35054597866410736,0.02117182858814892,1.509254169753576
-1.3122834112374318,0.4286587396338861,5.697512910046693
-0.038695509266051115,-2.3080385136282993,0.7497342370336639
-1.6157723547032947,0.3270684075693673,14.720016145678617
1.121417708235664,-0.37911961080083867,-20.15498008993193
0.4089005379368278,1.7979193663881117,3.640942466137382
-0.024616955875778355,-0.6912689567621623,-3.0061512780074224
-0.7751616191691596,1.1425639200052216,-9.590326169807149
1.2737559301587766,-2.514924624405778,-8.116100105728403
1.9671017492547347,0.8146250149842883,-5.719799781794556
-1.857981864446752,0.2761027539232751,5.784105367328022
1.2361640304528203,-0.24701649088573535,-8.96130436246484
1.6276507531489064,-0.1208893104863365,-1.6318357636141758
0.3380116965744758,-0.2605605906223512,2.752488701157913
-1.199268032335186,0.42300320958327586,-11.557916510992893
0.8633453175440216,-0.1342485646303186,11.123486525866415
-0.18092030207815046,-1.787737708417842,24.215893039376304
-0.6039206277932573,-0.1858108567803287,-6.740173072064804
-1.2300581356669618,2.2347217376258857,9.19447184418216
0.5505374959762154,0.046846204858301294,-3.0967948041971565
0.7928068659193477,0.29078794646870554,5.3336745642695735
-0.6235307296797916,-0.4380545074876235,-1.8170519548628135
0.5205763370733708,0.17405446616172857,22.086616299811087
-1.1443413896231427,0.17794555796161068,-3.2433181561683444
0.8018610318713447,-0.2612019194565117,7.939304091428136
0.04656729842414554,0.8632633989374148,6.0736615261769265
-0.18656977190734877,-0.9230779570843294,-10.839601368846468
-0.10174587252914521,-0.1301952082016756,-21.60269413049301
0.8688861570058679,0.5050537522920976,5.790872157500358
0.7504116398650081,-0.26700417934191467,8.445184395768823
0.5294653243527092,-1.2238796505752447,-5.367054182072711
0.13770120999738608,0.5582642185676373,-6.333746675376547
0.07782112791270591,-0.982160958028669,9.768032555621366
0.6183802619985245,-0.44730816175337745,8.528334249127994
0.23249455917873788,-0.8281475891882739,9.5587664736448
0.6825514068644851,-0.11072841404109841,2.6140203554021957
-0.31011677351806,-0.4293859732130132,-7.8827646112229335
-2.434837764107139,-0.47458986707940803,-12.179733796945996
1.038824601859414,0.6809789273140514,-19.93136545732275
2.1869796469742577,1.7626089014166477,-0.5768175790433767
0.44136444356858207,-0.357514214019013,19.191687587935316
-0.10015523328349978,0.5226551740981221,4.778945560383347
-0.13644474389603303,-0.35541349049214155,-0.7974024353979176
-0.11905418777480989,0.09894224603249625,-15.207462166329034
0.0174094083000046,1.1277513449502294,-6.67930066570908
-1.1220187287468883,0.05029323902704858,0.04938775623546407
-0.5170944579202279,-0.8155473512047462,-2.2221947567800546
-0.997026827650263,-0.7299266122876394,9.083396901692497
0.2487991613877705,-0.6167464250611666,-1.5860676989364741
-0.29664115237086275,-0.013304221307496948,6.953059952393552
0.4952113239779604,0.858011452091081,-1.1421826013137606
-0.17470315974250095,-1.3587968411019296,-1.8976716644371678
0.9863351878212421,-1.0372891693549846,12.591335295997602
0.2135339013354418,-0.9245412115760476,-7.519774342109412
2.1906997289697334,-1.749405421729222,-2.830528679214553
-1.8963609228910925,1.3259226834884819,-12.92737402624507
-0.646916688254908,-0.03637864376409459,0.9673935459673665
0.901486891648711,1.9007793197238256,10.695010010337898
2.528325706806398,-1.4243336751810016,6.81401910133606
-0.24863477771546005,1.2941823132591743,7.340118099189075
0.043668993178389105,-0.7016485321639636,10.530423760226737
-0.22631424251360518,-0.40736968517438427,6.2521818696730875
1.3314571125875918,-0.9889644570915376,7.582594321492002
-0.2873078634760189,-0.9498638594876591,4.037240770776158
0.6800698398781045,-1.323745411228554,-9.753885453711424
-0.3198015988986712,0.21633295762047405,5.260950996672287
-1.2725587552459943,-1.314201032526822,9.458863748241042
0.31354772046343216,-0.2418018653228728,-8.919096552187089
0.5031848134353261,-0.009201544243399692,2.3598998103219775
1.2932258825322618,0.6666106854061105,10.828130715711142
-0.11044702641731631,0.10039172239954759,-3.734764553885792
-0.6173620637123609,0.32132583346258753,-13.211065736558691
0.5627610966190263,0.5144115605663222,0.6153397186295915
0.24073709223773224,-0.017250865259717214,15.936855595216862
0.28066507712263905,0.36334791857426507,-9.129454192771608
-0.07311270374727777,-0.9797201914449796,-1.0539007040558326
1.1603385699937696,-0.7754704347039222,-7.51030947178347
0.36949271637572373,1.8975108071393503,-3.5896729405704733
1.9046587083409812,-0.011734214376557668,2.3477128105090737
1.1110566985605046,-0.710500674666955,14.76813608626184
0.6590497961002102,1.3798799010709466,-7.166440259683586
-1.6274383406162574,-0.15684261051476847,-7.086549942283279
0.602319280295629,-0.646491026783994,-8.725024403880957
0.42028220364705954,-1.448991548522045,-10.937904454878218
0.8109516728035557,0.7794918660522115,-15.347000602121186
1.0444420947072588,-1.0863009072108918,-8.512621990105282
-0.40087819178892664,-0.5390325800200371,-1.0581326947661123
0.8240056184504077,0.6440999879429353,0.4086538652840479
-0.5623054310190898,0.1836335742581206,11.724491875207434
1.9548780750090344,-0.08642687384180807,-8.21600484572795
-1.3319516665172482,-0.21398778156152834,-7.79938123992242
-1.7606885603987834,1.1459273541343218,-7.568372405228574
-1.6507212658241002,2.230274147801679,1.9574591905480472
-0.8905555841630485,-0.5487608291523853,-1.5847241666001066
-1.119115398559728,0.568904090502716,7.772087951112211
1.956078903703642,1.9288003053541174,-7.891408068160674
-0.32649949807818424,1.0790570549507297,9.132588525940285
-1.342675789377436,-0.6868316257783892,9.425131430139393
1.114382976779792,-0.43068062707394905,-2.6246770206827503
-0.5865239388215925,-0.5979685425002383,-6.2253745360902535
-1.2368533765413974,-0.9134434096547731,1.8116908947882018
0.8758389276492995,-0.6239051526686622,-7.915337654795832
0.6233621765780327,0.26187547894034024,19.922047356774588
-0.4349566829552277,-0.5870290051548038,1.4088730311117161
1.4075400002412286,0.876199862650358,7.924407685637149
0.12910157971072544,0.12325546357279293,-12.671073005022023
1.6169495988573002,-0.3971256828561419,-17.507575847901606
0.5027408819999043,0.8860899202069914,6.872662051836544
1.5588055406198593,0.3189718257204604,5.1588671895591665
0.10940269642542817,0.2648676257857707,-7.606047569132228
-1.2197443969790327,1.04003845453448,-5.667756498026532
2.4493686490613973,0.5732654485250398,-6.799438007764532
-0.5457741679825677,-0.10889846683804266,2.278269148606134
-0.19883786288889674,0.9375548428677463,9.23852128005498
-0.7003985049212547,0.3093178022046615,-15.448602099407767
-0.20339444896455844,2.917308762873108,4.787451311669462
0.24266944108179458,1.09868850104712,-8.741677208714414
0.20183017887400403,1.1532126213747222,-5.30931964302213
0.6610202875986929,1.290993371628489,-1.6043520807602722
1.792158208975567,0.07983961125628633,-13.614540401483557
-0.12046457178850745,1.3128954115297282,28.43938569739298
-1.2331207354464266,0.023357027569657567,24.2497747453344
-1.1823181265096336,-0.8311734031854027,7.522698590240822
-0.6657545181991266,-0.5639864584101567,6.560151814185348
-1.674195807618932,0.5279505543325392,-10.436101925859639
0.8250298244389859,-1.561119890658687,23.77348875883683
-0.4982135636310781,0.20835292145425172,0.18317264871405514
-0.3109849783028509,-0.7283500854473723,-1.2339550999896653
-0.0018914828380037015,0.7182163825618534,12.0399357908296
-1.396620424595432,-0.7461737106573472,2.608000655858127
-0.861316360776042,1.8723032622753264,-7.766036112085257
0.6747115256879723,0.7678181289908628,-2.18921430497509
0.6185391307862932,-1.2688589591737998,-3.7608577925288844
-0.44317193070063776,1.758759350083834,0.6465569336967153
1.8105349141254563,-0.2272525093603447,5.544575388744446
-1.3057269225577375,-0.727476109719801,5.3275890384283455
-0.34498721015497946,-1.0237993163261987,13.012018917862488
-0.23083974313546946,0.5677647396556529,-0.04103064215267418
-2.79308500014654,1.5045218666646716,9.580685182660604
1.9375288136160798,-0.5784269725316454,17.066618414821416
0.36633201454005826,-0.9976208418380527,-12.260226077977771
-1.0445893819077916,-1.1397000880327837,7.125705634905099
2.0511734428574444,1.496405311360214,-10.723321101925027
0.5856620001723825,1.6707292217109244,-15.070755907081496
0.4295261400219645,-0.34847114011929786,15.846620395874346
-0.6069983982000461,0.5377050874408872,11.35483968796023
0.1062227240352178,-0.002905450275541419,5.2337294391280365
-1.5256803162293577,-0.06063030227924242,-4.769313976443531
0.7950260944248447,0.9640226322174184,15.035612241102962
-0.37443831884322065,0.4409560006804435,-13.67167725038839
0.13404819655462313,0.3294899667614772,0.6739291981889342
1.2020548621997058,-0.2925789353599082,4.851775536625463
0.28474811084905793,0.815600359710878,12.871269332031163
0.2624674454632686,-0.2820059024109606,-15.264276993735633
0.27649930482218366,0.04992248806785643,-30.641413561051007
-0.7332716038953129,0.2194774937754363,1.1537031328626592
0.8360047194342688,-1.20115565525345,3.1742715534436643
1.5433591108044837,-0.2990949667611442,1.7368027267708264
0.7588056600979309,-0.3126030136650717,-8.77246861311612
0.8849088144648833,0.10120308649831945,-0.44160799840172793
-0.8772815189181883,-1.1118180907755213,-15.400790713414786
-0.8677872228729256,-1.1865517009450086,4.205933916851129
-1.44087602429184,1.6234621032930863,8.92588395830451
1.232253070828436,1.1564436063936467,-7.320318846051872
-0.2541798676073683,0.8890393567021025,-20.039417678250967
1.3998439424809859,1.824818786589987,-1.2978171025513718
-0.7819116826868007,0.41959523754955963,-1.9850031940069959
-0.437508982828581,-0.09107873492717967,-0.8060699432624299
0.0954250871912577,0.4821757484334599,13.035754514576023
0.9214500686595114,-1.8792869914501684,1.385954791185322
0.060750195799506745,-1.0980831454210314,20.841228476909002
0.21112475500771674,0.7586370630214484,3.807434533098883
0.01652756730561561,0.03261548315667647,-10.8723367066726
0.17718772027596041,-1.2776363350812348,11.336134582784588
-1.1164700178847444,0.6585368715597955,-0.9034436761133893
0.0809271009732786,0.9989016489932808,-4.887708573317057
-0.18657899351146628,0.6678795613643351,2.794013512216662
-0.0568244808858473,-0.030296779438812003,1.147838114006333
0.4923365559366488,-0.8360494800523847,-15.585941928171035
-0.6806781410088858,0.10759493816851504,-8.495187764148103
-0.0845080274046298,0.4269243288256842,11.52006570014651
-0.2973618827735036,-0.35858879766530466,1.7592789245984333
0.41730200497486253,0.6030359101266989,6.389859536932096
0.7847706510155895,0.3144319337524709,10.201526445153519
-0.9554252623736892,0.33311455047149896,17.92613071632507
0.5859104311026156,-2.0325397888215875,-6.390965001967929
2.0657833202188343,1.0810929930210922,-7.033950585259873
-1.471156925832625,1.724391719951887,-9.245095945483305
-0.8301718953151139,-0.4024676245696163,-6.00450541555805
-0.8805775998441709,-1.476898981185481,-9.125867671295468
-0.27909772154329027,0.6389293194198086,-0.1500073249781529
1.622849085954001,-0.4656597324338331,-1.0823276892106413
0.013352676347176594,-0.9670123710082098,5.812382717209089
-0.6946935952872263,1.217716255875353,-11.906512335608765
0.6218035043055724,-1.383379352486164,-6.53824523313264
-0.5998045310708474,0.7174286220370574,3.5946106565128764
1.1234121620219353,-1.2477341209058204,6.986479775844114
0.30526704024401075,1.4622679827754739,-23.16617310418222
1.3887793963702684,0.5165524660423712,-6.020706223552576
-0.6613442431530187,-0.25739499650682995,-2.5362038959397797
3.0308571123720305,0.14936995811488732,-20.411541793372045
0.8245846250334574,0.5820873874833424,4.487003567731619
0.6545801525867004,0.8298943774311116,12.04127526258809
-0.05118844760766421,0.8277914282922316,-19.430994123029215
-0.7255971191344275,0.546730265916426,-15.64928767972624
-0.8677686776235903,-0.47738166223266104,9.521821267404128
-0.13597732610058932,0.6640795475273731,11.35339228119035
-0.7972697854931297,-1.3113243820094933,-12.727756374651548
0.28267571224842025,1.004093104601491,-9.87620712704062
-0.8260974318473202,0.8730058373155313,6.594188067356809
0.6210827008390084,1.39408104250043,-2.4302373169355382
0.9561217041246964,-0.5887796071685205,-5.213164307740237
-0.7058405074022839,0.18621169846960364,15.94137379633442
1.1926860677546935,0.8582860008822079,2.977990384609698
-0.23794193575218264,0.317857879102256,-18.194488422044685
1.1552878860882252,-0.42666728403845283,2.533139057227929
0.4381663472912375,0.30733106704705815,-14.052576600099997
1.1223283216570923,0.06803203466841243,7.42056579716027
-0.9970197955296825,0.9957039414105046,9.819936577191596
-0.10679398677922511,-0.6284625527547907,4.3856199808904055
1.4514292605909354,0.33948780556898744,9.27819852939582
-0.6180368476815788,0.2929311256805711,19.642794572557086
-2.037201225680795,0.7573281242970629,7.26679966035482
-1.9425891814764555,-0.072892245211876,-3.7195994083875488
-2.506440652676061,0.1273146355720885,-10.933039087690002
-2.114163921916826,-0.07094967490085848,2.2445073469377035
-0.41163916318848254,0.0340658625538518,-10.350381702707548
1.2785280828417218,0.008359162757482943,-14.387452730904759
-0.4422292795131728,-0.32674455138175723,-4.618495049410464
0.3235273536014321,2.82729979405965,-17.783181251316705
-0.10999149016360682,-0.843911487937803,-13.004737829259794
0.008548945436024693,-1.1734099063320942,5.011563909976024
-0.16819883974471597,-0.7956266127891249,-4.752552733646227
-0.1741803443079907,-0.7100525489930525,-3.0663438070260325
0.46116409997701746,0.011436571155416278,-0.2591609865815979
-1.1759826714413153,1.430932797842637,-19.541918157254504
1.0101271773347245,1.6883837829950057,1.8622374551821377
0.9200179332477632,0.23732436396319365,-0.038299430664775404
-0.19505734087590118,-2.4982127142596626,-0.4520646971031836
0.8053934242321815,0.3843593530746588,3.4284631059528277
-0.7013444262571769,-1.3106545656253938,-21.649275694062023
-0.5372230238753384,-0.5007015751875076,19.118295120412164
0.15626385027008327,-1.149722788141142,-3.033511147770679
-0.1902210250848615,0.42562257961103717,-14.342137169891076
-0.44873803267162277,-0.626607444597052,1.115298785398136
-0.6724480387865963,0.7721196774406992,-12.71167723089402
-0.5574947217860433,0.47730239639188415,0.6639269984569035
0.9391687441964878,-0.24006956675279084,5.406022320910385
-1.9433234056683528,0.0805603706020881,-13.1889682743322
0.352494364369333,0.9174197664022404,8.454264291238804
-0.2364369518129867,-0.37213191587612243,1.3109219967497152
0.7278134999996488,0.9156188854932334,3.49083684214654
0.5150736136393657,-0.019316006687580132,4.040681051477186
-2.7825344676529227,0.2693974528048613,5.124341468056791
0.5846466104774262,0.79924087113552,11.203617995751337
0.32427424344842104,1.3315325235789282,8.604544477785941
0.02186283662655242,0.5208121988777386,4.869103534737833
-0.46867381627789134,0.058371883962996744,-7.643396262695974
0.8532812219556223,0.720685934762169,2.863311024692068
-0.4130293097110322,-1.5454476374197936,-5.578339544058542
1.8347176266496867,1.6389616031539602,-14.487522736715716
0.5643828554943137,-1.325491265694986,-0.41376875211026387
2.1378280674394823,0.9037094332179562,-9.128100967507606
-0.7855339969202355,-0.5641639305453827,11.351413857865388
-1.7559256402328518,0.5072515845393727,-0.3770919420042695
0.7147895974858154,-0.11656742405674565,0.45262568720710905
0.8527040617252863,0.3035897590687767,7.752061185930605
0.03536009705475734,-0.8007870395667669,-4.181239219167975
-1.5387932457446432,-2.1606280042996677,-2.565948584104291
-0.4478951847161186,0.40665564934853815,11.646711622989354
0.6179855339203347,-0.6005043386242819,-13.836786015679184
-0.18417632565374534,-0.6486357676015769,-8.669552184321473
-0.11598518547239624,-0.7253231367820491,-1.3369387223934461
-0.1754589686617526,1.9844112488851215,7.847891910603185
-0.9339146556265013,-0.5821924381263328,2.4979247394889876
-0.5330203260835993,0.3268129791190551,-11.575168377245607
-1.426555420520532,-1.160443193869437,-9.197739705244746
1.7679599483110264,1.5230967139279845,16.944600197979376
-0.4753728751379821,-0.5562679686162673,3.1626928139039254
0.47761018181755727,-2.6006418091130947,-6.184412224138484
-1.0218859446413093,2.7119498738951555,-4.842775205729267
0.7945282396010823,-1.0981486325572187,37.40248903704589
-1.8731609776353015,1.308932334281501,13.402719103293055
0.9206151180549562,0.7330725605424461,-16.36474010945261
-0.03536792487871091,0.6521796358150284,-4.587749755420541
2.1106050536007097,-0.23148483037082923,7.228226834002522
-1.3065340728440185,0.18919875182509854,-2.7548108296472535
0.076380480159592,1.2239360089168974,11.390532955004165
0.3672318138838647,-0.3009307161993995,17.642495790385695
1.2328991923762371,0.25130963208627743,0.0756039503731471
-0.4228569613907754,0.9282902149250671,2.947395148619431
0.08646440652428741,0.08338883723590933,-1.6866228674395751
-2.1424667290773685,-0.4249831950984578,8.82799066106527
-0.830168864022708,1.4516789083179342,14.999251635020865
0.45161595055524156,0.3416885988728869,9.343953739818499
1.1041743263032135,-0.12517266458702858,-10.829776057118046
-0.28173626906561283,-0.7758948239718666,7.543630698241057
2.0563555231982935,-1.005597221955974,-5.787539333295567
1.7602492264490932,0.893784105381041,17.48361966154716
-0.06065249177480989,0.949268086233381,4.762838157069839
-2.4135030011737877,-2.17071105907707,10.58128734316406
-1.7775663758059874,-0.615491639425755,-0.21059386083835163
-0.7778588266274128,0.9648881368696258,-0.3233791224007781
1.1158411079241686,2.424306619264515,4.3077763276180665
0.3102722877837673,2.1503538075928947,-0.3080131206130836
-2.094247816222812,0.9418661752421255,15.78913904941558
-0.22876582887016242,1.373332455126111,-11.421963009115636
1.6133613745631155,-0.5274194569670009,6.854164476855812
-0.3748046873026527,0.7745345235289796,-5.866597964399874
-0.7499696172756662,-1.2371647009313789,8.610462424060724
2.054624102518116,-0.561876346268859,-17.97116092354214
0.05340953679834792,0.3209710832687655,12.861262484521879
-0.4791570987860799,2.167937070050156,-3.0936877839864434
0.3501671588282789,0.7479633293378322,-12.336731524814669
0.017164726374088564,0.2738270906665688,7.166843102595768
-0.42914227823509377,-0.17008356268584848,-1.9177684339106473
1.208456328551963,-1.3224429713422496,2.7713883157577572
1.1157018027844863,0.6028630022873442,12.279086981752831
0.8408615581411037,-0.34909369658323175,-10.911905567541966
-0.1028872175735376,0.2390447056304451,-7.363771349439864
1.146900376399483,-0.8893309139745152,0.804071303898074
-0.04970257915867584,0.12125495370357839,5.675153985187858
0.46664326722884075,-1.537028866939562,-7.03614975856491
1.033686867939501,0.5039062191897026,-7.9314531509465205
0.8088443602656821,1.3197259119719253,7.713352922468743
1.7897546832062712,0.9139508148791163,9.83638642215719
0.4512840160401709,2.1138237591194438,13.97273258509965
-1.6840599858682372,0.3245535159290734,-2.9513532598451113
-1.1601701049822761,0.5053634415125542,-25.82234797652329
1.350106818681726,0.514864837855844,5.2339028476949085
-0.3312831699326283,-0.8797298016122248,7.599321025295836
0.3865391451330911,2.1532334692629522,-14.668231498201383
-0.8514556565308268,0.988578084408599,0.9038024644506986
1.000881423680301,-0.24282642147418337,2.7530827954620056
-0.38483224883279044,-0.9028317425037818,3.4035496225335726
1.4581082386095199,0.5815092832414559,-4.646944688246071
-0.5322340208981775,0.8575475535903946,0.8343319476319256
1.1181333967176956,0.1378848679098275,6.003944961151912
0.6743961048208689,0.18607451711335346,-17.76173442141947
-0.7223919054141509,-0.1881168334309667,9.11082434334016
1.0989963327471792,-0.002747395727973415,-3.6583665398201863
-0.901634490475998,1.3351413277186313,7.64502119196767
-0.8224671889042517,1.40061788580469,-7.026202774311522
0.7217112921126926,-1.500176883494792,-17.11764865060453
-0.625342001465988,0.13887887453617104,11.811387284253252
-0.5938430672545096,-1.2041013496697026,16.41136185707518
-0.3439007092103924,-1.3356954516986081,-18.605307372176693
-1.0001691898725158,0.5859527865195064,-12.922766213687398
1.0449944096738975,-0.841569337976489,0.941731578465827
0.6085146984848496,-3.1533574501910486,-10.493603216267163
-0.06932869669048287,0.6451526531285782,7.602517470234037
-0.10839206717353982,1.2821418300893201,-7.970638989468275
0.45015551276717897,2.0387771395785603,-5.17580525930935
1.7653351005190716,-0.396293291842643,2.1143496899161858
0.8709698025322423,1.4454453080128968,-21.78225097325519
-0.5084571342754007,-2.6210116358079985,-3.199225871280178
0.7774192052488628,-1.0433996069036862,20.14648873999552
-0.11877117210308928,0.5189693714083458,5.868847453565396
-0.19899818380372442,0.4715342680872849,-9.991095128812628
1.8664713751521251,1.32041791273182,10.460151208496924
-0.41893789767812306,0.9566894896320624,20.631854387843408
-0.47918491512740585,-0.08157001965169976,12.746684771773753
-1.9521052872452325,1.5292478634014344,-5.846108372814344
-1.4023291454531368,0.6864826401316457,-6.575961398094976
0.4511229387345986,1.7170887330563231,-3.7047685436700895
-0.6949209011852391,-0.8042769927232138,-10.49053366243632
0.515413801783241,0.3002536763201884,0.29215791266507274
-1.1148710523659369,-0.42959567390032527,-10.056893205985844
-0.7673098263317347,0.8059133073385901,-8.752393871449163
0.6745707069560037,-0.21955216709416556,3.208187718092047
1.460892380463078,-0.2518521972500833,-5.636220581843773
0.5924728014240198,-1.3264896477767878,-2.043848143656396
1.197830841721251,0.30820413383639916,21.481782434352507
1.7045941713724069,1.115489374094808,3.6821948903367896
1.0400891531540952,1.0081956109102623,11.903232334406804
-0.918440038300026,-3.0160319852092985,4.379181321807927
-0.10534471250754213,-1.6196456938206558,6.029790175637042
0.630195670684911,2.0051405255465915,-13.49175206963777
-0.4148469012882354,-0.18762634911122614,-5.469719130389167
0.45194603732122307,-0.14894122914447525,-2.622538736045713
-1.5791562853944654,1.1653354411392074,-4.466266504517681
-0.8286279788564058,0.19664529496690467,-2.02908504583685
0.528879745585174,-0.6325901423895697,1.5990174327940532
-2.2370865111124707,-0.20984694852691854,-2.22612409447839
-1.1077125022845524,1.8971606873858808,6.895928169178559
-0.01771831791014226,-1.3813911531218699,-2.477975061075331
-1.719394474619523,1.3012248377291613,10.839519781997106
0.057120996082092076,-0.3123921151914365,-0.13095411345173574
-0.7995474906917599,-0.2712287151202614,-5.946762577195796
-0.2915945955008327,1.8629130897734716,-12.513907568690088
-0.25898285340053234,-0.642873594919632,-7.693836244291607
0.1892931975586576,0.8350583653611483,-2.5431071572145916
-0.5637887345823027,-0.363053450794692,12.02059351006588
0.08968640732259017,-1.4320670261489077,-12.718735784146247
-0.6011568006493835,-0.1660198696946643,10.401527392549108
0.5560735100773853,1.1689263743278715,-0.9176419335806169
1.693809113288081,-0.18589217762224536,-8.314450803505212
0.19686977925029145,0.5494218269801783,-13.190912300084694
0.1698692553475717,0.18855331528016264,5.489951251882253
-1.1640079711612021,0.04683135799744122,-19.062328456870805
0.6933662256603845,-0.41749782273416436,-4.615129705246348
-0.7580673285562323,0.13178230051752346,-4.403619312799522
-0.8088471964721285,-2.0328934519997985,-1.6312500621284975
0.5574394528580334,-0.44832165562495413,5.811849443107207
0.18103874435787085,-1.8039436253159022,-6.146409249169097
1.1071754509490623,0.2696988468097705,1.203424280078301
1.4428769284963092,0.3546604863959199,-12.178460507591776
-0.5396815622024924,-0.7960652494953289,0.576920925776941
0.12837699015594436,0.8013076084574321,6.083553766915521
1.7604151835753223,0.39583055113614785,-3.5169187612357784
0.9665392502290573,0.29357208724825684,3.686656929958845
0.7130490503032691,-0.3614038605351397,1.0463232334045327
1.3062060651354486,0.47279300368474003,-3.442891492802984
-0.604602969164376,1.0542070356357671,-0.6081747453551338
0.6365834094146309,-0.6604431907601538,-1.9502087663908494
1.4092533893640082,-0.8168444258601902,-19.742477626379515
1.6209122856217475,1.18901075705839,-14.991628617783599
-0.8061848173822241,-2.318428477687406,4.328522273782928
-0.2516742076314244,-2.617290094387935,-20.883470416843757
0.3827151737243639,-1.814727087567263,11.583817949984427
-0.2889973430098159,0.1817410298295303,-14.099711379719631
-0.3918162398080484,0.15237420731890447,0.30525287891121367
0.684001328181953,0.4965050383582789,4.72135915901166
-0.35340998286701436,0.07597729042272197,-6.367350241906235
-1.7879128911997157,1.5373798077309975,11.62588546776034
0.36184731583956825,1.575783445862164,-13.708535487883825
-0.4244927905709274,1.1590106388629562,9.067663773284979
-0.7315309817303334,-1.1558002714875353,1.4855654928392612
-1.5657381506559054,0.36357788599044405,-1.5118582188059086
1.0138224669717055,-0.8662026807009421,10.116959457668909
-2.2271126318500145,-0.5007103655935266,5.392538227271283
-1.6993336047222958,-1.0233622014868475,-12.044774365748985
-0.27584606256114336,0.010712426627731694,14.118106063787874
1.2289555856506973,0.5441240835875532,10.039964033226745
1.3097059056826534,0.0786920498406861,1.038076810886715
-1.1549826349293644,-1.1933686903629275,1.4968752877271831
-0.17763219598355098,-1.5260351879826028,13.362367180035077
-1.5104563750875688,-0.7620848052451318,16.581722542565448
1.0112070637749084,-0.7776383573759467,6.126584867054992
-1.4765626605201803,0.7842731671070845,-11.626214343860234
-0.14319574500723764,-0.3192808587483191,1.2025014650600971
1.0329837789497511,-0.18866633890511852,8.20019905526763
-0.22241402852990858,-0.15693506698282467,-8.344983354558087
1.4701603438257402,1.0968481478561416,-12.058669118259404
-0.870008223190852,1.6361151221599526,0.05778391705293282
0.36919046954687373,0.42705853717417924,1.123638456547502
0.8532821858237332,-0.2483058331869234,3.778297912979604
-0.13971173044107246,1.4025015262856404,12.30299344816437
1.3863142642463189,0.43824139301753284,-21.82425399509166
0.5481295846881931,-0.4210968850658138,0.9986144802354702
-1.6374495930083417,1.0105737112975397,-2.0567772375813833
3.9586027040379634,0.20722994601150022,0.15749245653221938
0.6486436440906672,-1.4340307289520844,1.6743325478125635
0.10734329382358966,0.6269063059702962,10.257495478066412
-1.3988128186664763,0.29982520177529054,5.589327357143823
0.08176781880561644,-1.8566414222240666,-0.45699923222044236
-0.45994283084068716,-2.1510431552039577,0.891175300595829
0.6443536660303223,0.13630100537027234,1.0535739192515123
0.37167029121186534,0.6833562545792692,-1.3296578186014174
1.853009485069379,0.6085800501276962,13.220137844986619
0.14225137252631778,-1.360979773904556,-19.122382859697467
0.5135054799885475,-0.34700994911158545,-14.014961881101126
0.3724568515114425,0.6665899190285886,15.976369628457135
-0.14848980305939366,-1.5357522087918913,5.736533442539641
-0.1834001973200239,0.08528298217914626,6.30641672525493
1.1010002026684818,0.21332926939765448,11.581868527405184
0.7800271353386294,0.9237559690639651,-20.183550516948063
-0.62944160405378,-2.453891930331267,14.391354025339332
-1.1134361029729902,0.14498732700110628,-11.664641491312413
-0.06741002494685439,2.0181218523403635,-9.827389700521454
1.1614399816743937,-0.6212073387910747,10.362427757607
-0.027529386267978004,-0.3162393276322203,-11.55715954115885
1.7464350892279725,0.953992230218348,5.3092121278657896
-0.7750702870734348,-0.7631426010826766,14.273293869368374
0.14164053766580517,1.156954884598025,-6.495935481591003
-2.516303860965749,0.5405331612446118,-5.890801512833148
-0.5956678809102903,-1.5740734251337336,6.720285679819714
-0.30912131864186215,0.10059341767972574,8.963216468688703
0.5109377744920892,-1.458981958986978,3.4172522132346783
1.7106618386711354,0.9525478184314949,-15.81368005190903
0.03494358936374005,-1.6806744727713117,16.102040229900613
1.4539175816088175,-1.8117537147191385,6.224949307878803
0.6616810764659825,-1.1373044112741126,-23.568649077708294
0.9863521802120643,-0.8030726661534776,-8.997874930908697
-0.466154856825928,1.3149407875180261,-10.600342610720748
1.3849913436486387,-0.018257535174047008,-7.776976185631873
-1.072964278711645,0.29100454237039114,2.5605238613052044
0.49515861120031657,1.0748997485451033,-7.152321407714558
-0.952062100706259,-0.6978099001267304,12.24947014327952
-0.5181455523987548,-0.5783257170197853,11.087379256659277
-1.4614036047221062,-0.847452537849712,0.7425068210338727
-0.5163479086460222,0.784904647387373,-10.532269735060112
0.35111689651096534,1.6332762095790374,-0.006130050749615328
-0.06877046307863847,0.2587424943122645,4.067597257501639
-1.3477649412536636,-0.6232799937115168,11.62457386956998
1.470739856691369,-0.5203610271366949,-4.64294102344676
0.33722093830845856,-1.112314290206408,0.7972196175027634
1.0080654330757632,0.7311453695585632,-9.967397713054439
0.7852269196346882,-1.062928762372351,-4.609823730753101
-0.6648677669672133,-0.2546330654656022,11.683381663504107
-1.9450469586120391,-1.168961344799233,15.962034793090146
-0.9154243682317061,-1.8994630996214505,-3.4497412040426747
1.2251558492732308,-2.539955403305674,-2.641389428883686
-1.053546073700315,-0.8899615103210368,-7.6066216550122645
0.8160436843240609,0.21807849778616917,-15.295979793746664
-0.6124069731288238,-0.3178155663147815,3.727604823882885
0.3931092448539835,-0.22357488745522028,4.726903170601264
-1.8239198526251938,-1.0713798803867007,6.044470805127578
1.167075165999964,-0.9316815621596365,0.26131979530616145
-0.03966870009048212,-1.0677023428943548,5.292113042641395
0.8858257989659072,0.2112336611600396,1.653818999636567
0.18986164938309566,2.047654837143558,12.444590620289295
0.7980637952989431,-0.13637250975649887,3.7457611195590106
-0.10193203926360005,-1.3692804052133245,14.513351157605372
0.7433565435138623,1.2726233312944941,10.723618705649006
-1.5095726842240433,-0.9985664147892049,3.5901654387424187
-1.0807106924455065,0.557532641377321,-12.423005116668568
0.7254740044815357,-0.4426554096701531,5.172723109699303
-0.039178256209496685,0.08108320579792591,3.207619806555976
-0.22875417122021255,3.432663431795559,19.186195264011076
-0.17961229465135792,-0.7475262685796005,7.423415737554881
0.5017251093451655,-0.586680439697456,-11.312712082912714
-0.593343754242419,0.375235451102576,-7.928637346996404
0.5103075967452559,-0.02194676383127246,9.639369237089188
-0.9157918490686792,-0.4060709011954884,-1.9311226230054834
-0.40725204301996576,-0.6884075431685927,-12.028900119713274
0.9849516717192109,0.5904938662003054,4.907613815015929
1.0712524278458908,1.0773765676263816,4.936492371435114
-1.0971543602553622,-0.9520840716488203,-1.1854175010917876
0.8386347472283774,-1.1364331013176956,8.615962373417194
-1.039182322034903,1.829906238047157,-1.0423392541083456
0.7330232317190783,-1.4251561722623798,18.6481534291299
-1.8988120593192948,0.7153334491047734,-10.975098026466428
-1.1171106924391125,0.43912737321880185,9.079220869128259
-0.5089722778228615,-1.1029695489243718,9.909861710337484
-0.16648595488595935,0.7594935929950941,12.668665643981818
1.4236144293489872,-1.1032163462730862,-1.2525423890135003
0.9039991740035269,-1.0895510984630417,-4.129943380926289
1.5754679085723808,-1.389550238470516,17.40675064035518
1.2066078980355681,0.8342832052517575,5.465691026603778
-0.2828635516348445,-0.44934584755239315,-5.851352797686909
-0.2663268843187201,1.0852513203699437,8.323518154376313
1.0689716222012626,-0.810140030643709,15.870825219388973
0.040371431022839264,0.6146625861253558,6.6638105612581064
-0.15699367249331792,1.4074105946578879,-7.259800553524553
-1.3352027230151915,-0.08601351309313744,9.794249859599478
-0.10646012155553987,-1.1254527462501986,-15.375348412154786
-2.7909964066938464,-0.34257094231237883,7.768192843307928
-0.45611755514868535,1.2567374708813324,9.78327542602826
-0.9798902516618007,0.7390938362426234,-2.219688997106049
0.6925743475393558,-0.3859880935287451,2.7712650056115278
-0.4786723564156615,-1.7443723745538922,1.5028030707346207
-0.3290515493410809,0.7155367850567184,-5.357956620139959
1.3471054646704976,1.6309062540803745,-8.576003202029046
-1.0490677451686161,1.6485940770510845,-2.786813476594679
0.31665889515665435,0.4327901996345385,-6.2201215433926125
-1.895266947476466,-0.19102917139960773,15.138407485294787
0.08972911744465112,-0.7861212702401676,-13.552714642976344
0.41026574539684446,-0.5726018173106335,17.99211810942495
0.8598709717969121,-1.6497503040146722,-2.3541095803671688
-0.8986831933186461,2.1345515589126642,-7.7103851332821645
0.3196569419445935,-0.02696438928302991,-5.442459107735271
0.31815419967868935,2.384405138467877,-10.409628473237882
-0.01923163409763723,-0.07449741537318715,-20.32167323739674
0.15001627872780374,-1.6183179316099756,8.159891538121661
0.4635343217316655,1.8615651022774895,-1.5364732494142597
0.39788042488185116,-0.8598270238675055,-8.384502906325029
-0.9960108890883996,-0.4379082110154881,-13.058329534318514
-1.1958615103244818,1.6485510899956075,-5.62829044435584
2.505980285318673,1.4587732107662719,-12.514994035400624
1.9197922864280879,-2.0262064158338595,12.985716217739778
-1.3916938760540336,0.0010547699418268317,-18.96277930424392
0.4502177420378455,-1.0895350051014767,-9.582128157722813
0.6274370827531105,0.5391382220705605,-8.83021730366859
0.7513372351604846,1.8121770915950168,4.751773927691612
0.14039543644735017,-0.517489822461975,2.537748075110025
-0.9268719392086243,1.4932228006540538,-1.447931144765984
-0.18242040636309756,-0.9286442753793525,-1.7222498883714352
-0.49112513779081807,2.1722705158214577,3.9807178788075337
0.1343731160397544,-0.8256538909305323,-7.954389347419866
-0.26837130412057664,-0.4633379678363312,4.836647333649347
-0.13167562628701832,0.2969573677573097,-13.22762419765784
1.018552474767882,-1.4005944466686508,5.403055162702174
1.2305581999547246,1.5496088532112626,-5.072572026876707
-1.181103172771823,-1.0700169041291103,11.283785422364605
-0.45993010443458127,0.613951564079822,-12.233505715927329
-0.7907999537751678,-1.2891300394749206,-4.535031189136779
1.2237222119601092,0.10978294611235115,-8.209053714367824
-0.05936790254849916,-0.010526175421014809,9.402189051184921
1.4489894041582356,-0.38824090698920655,-14.112934668388917
-0.4775808546567209,0.4892191937564925,8.841477951153655
0.025999994185658175,-1.1168322572362501,4.632172228765913
-1.3486964467972422,1.521865766667497,5.65973205432593
1.3025355364861801,0.2024473569139789,-6.881593072259578
-0.36261208757725877,-2.7914440379218326,4.753405172814224
-1.4851564513254543,2.005561575887981,17.507218048489623
-0.5924612851532695,0.4527136222363632,-6.913085383825598
-2.304907937770138,1.5535652215621067,2.5318954811736005
-0.03181717269879145,-0.1769365572253719,-2.630812529374809
0.11248774241419583,-2.2626153263456037,-11.00346396145693
0.28807816700515054,-0.4197178699128385,-8.248275939563184
1.498108183577034,-1.2260699612397163,5.248509452500714
-0.30097615395533844,-0.03848246228477962,-0.4538255669644253
0.8074559170052702,-0.48272686236554857,-24.52919862800538
0.3122386890129999,0.20901228007003622,5.322881797215193
-0.1933216404740039,-1.7644080806307176,-3.175893278301259
-2.076802021923554,0.053782404427079926,9.177471118740051
0.9475011673456759,-0.45958183317236806,-6.436341669020253
-0.5039739491423175,0.6335088707785933,23.069272739711728
0.017955891650826426,-1.6923025488503851,-9.487492520091052
-1.2704607763854796,-0.4250709757555864,7.662261906874215
0.2829955338110016,1.6583993398079262,-10.754598165366552
0.10803081731234535,-1.1810628977377973,1.949556147899143
0.02941761897076564,0.7380536853593032,-11.475100576742117
-0.13479312929572362,1.3305061151948567,12.54848753511963
1.0492182907525678,-0.010089768356528127,-0.2110381939647485
0.9662208625783415,0.9885106422191401,14.94769182528637
0.7259168525208212,1.0414396343771428,-0.9728584530160729
3.3210787561703645,1.5697555099121938,-16.24358963165887
-0.6002253303773148,-0.3678322013658868,-8.431173300928394
-0.37951751553387963,-0.11229908338733986,-3.921689753142158
-1.014803690858671,0.8041228510204734,13.814994155847963
0.43598619629640983,-0.745644049670234,27.29462135445094
-0.6874873930601744,0.04805070666646386,-1.1415706800292051
-2.698361741666047,-0.6985706620498542,3.180168609494612
-1.2133381258287046,-2.3290411224270056,12.501122262187145
0.07225189915588459,0.33491514376705933,-11.413083218566607
1.0097873349475586,1.7024300469079419,-3.1560320940172826
-1.5569415578650314,-0.3720646810099599,6.6959269591170365
-0.6124421282843443,0.08429739091029076,3.5313325447531545
-0.13935180545092124,-0.45310495137793355,-0.8432253269598856
-0.7285374894247015,-0.7409633426063588,-9.774007100227983
0.5311637934562251,0.13610446388547395,1.041899758726189
0.004000841975375483,1.0729310979967936,7.128772994560211
0.3212659144838316,2.2158433358479184,-7.18420956902102
-0.7252149257453662,0.8264765570684348,0.7447709492304472
1.5365363280210986,-0.9613638025614542,20.8974091704949
-0.00037500875835609604,-1.427015628711627,4.773366596902064
1.2935496206633084,1.306830585767448,5.931235663760103
-0.43899766366627757,0.31671499153867405,-10.361885663919008
0.5900394641608302,-0.6104632434424175,-5.50875649603592
-0.6793837829972343,-1.0561721364058085,-3.174661705913823
-0.9509092510507696,-0.8077223666950638,-8.386774077745356
-0.7043503315234588,1.2334249092992629,-12.09100458641519
-0.04586668606976747,-0.022359372022848555,-15.657748449138428
-0.21873345896770915,-1.4004699771244002,-2.078798378025742
1.5392070096550627,0.8725789897317252,8.3281874352171
-1.1487042296369459,0.3101025961317004,6.167805635806435
-1.0903383324548148,-0.29113217079433823,6.762815106358739
1.700188146645526,0.6077152484722893,9.120868581510255
0.6087836589081088,-0.8276839572730029,-8.588231507422037
-1.8814108671660597,0.9639045974419587,-6.832707184137332
0.4972690986459772,-1.4248609016543665,-2.3558565194673466
0.23733269933959658,-0.903442726359496,-8.912576389118602
-2.1444440467284505,-1.3768830410058717,2.4967101487352887
-0.3695624253374333,-0.41655905987390124,-6.631558312958422
-0.017454951836177974,-0.7574510334031589,11.139527418808068
0.7314025171250657,-0.3626459187674246,-8.778515425288498
0.9544956665476875,0.0047678317763124615,5.625417835249032
0.09574677111013467,0.5542525399087611,16.78760399494032
1.0334508032642373,0.1465320727650737,-12.152254181311307
-0.1462732746113538,0.2518597032535034,-5.513231444446825
-0.857496824739772,1.604323943116341,-7.6815847637413075
-0.934181843147949,-0.2664905609060913,-10.602738188253056
0.542645294566316,-1.4583359393639643,2.606884809102133
-1.9581690855990108,0.9513818124799459,5.003195194866704
0.6778075711198115,1.8358695455399285,-7.328074372194352
-1.1065730673918852,0.18728869413965668,-5.124826255142971
-0.3592240957107388,0.8395342227862145,2.4241075242619896
0.5053819027529176,-0.6556166871463461,3.1396174295537116
1.2179409008013473,0.18567535375888505,-11.113729323078212
-1.9406809643648932,0.6370253187948584,23.016345027808534
-0.806178211953457,0.37857557679582865,-2.334410488312064
0.04906169237310281,-0.5396976528131852,0.8811970446198624
-0.596086334587662,1.6306297921390362,-6.280690126587997
0.8616231013412039,0.1728160841036588,-2.586954360976899
-2.0863905654565262,0.9301982055403866,-9.04288638743523
0.3618016405710469,0.40577898662854966,16.282387080178005
0.425920176502816,0.8736742226670051,-18.47187510881867
0.049080397141630476,0.9332532965859972,-1.8494936447121513
1.1022367325853422,-0.21615514939953132,6.611144634726759
-1.229574253546429,0.8336788128625253,-15.972142442577566
1.108616757989675,2.160455726859277,4.610159637431851
-0.7029204029101687,1.9989920138971085,13.165064027087494
0.7255505180787332,0.7640414200481108,2.963696717799263
-0.32420421948521105,1.687255223155202,7.512221247400476e-05
0.8143431291489254,-1.307971343663687,-0.34210800092609434
0.7804699297583744,1.4723963067285686,-2.8149932055068447
-1.4640535735805917,0.07487609788866709,5.801776447125971
-0.1544911938105286,-1.7869354037797818,-8.635265965180466
-0.09243231854158614,0.16521058652925405,3.268130619775272
-0.2378752654568325,0.9762962980812675,-3.3852572514158346
-0.7556627651019651,-0.6960276712961552,-5.816228502650783
1.8514378945735097,1.9371315806243106,-11.563755922941564
0.20909667657552103,1.3492276782627104,6.745282193394017
1.5550159943330888,-1.2751138646701632,-5.906453787685052
-0.5691486535119704,1.0090902626721503,10.775199822005938
-1.061796761310848,0.11197268749652817,-0.280454189223215
0.13224777891978462,-0.5516802438110113,-0.030922379575568135
-0.5632366041174566,-0.31663164258546,-10.978727092313198
2.3901459623335115,-0.4449950027159164,-10.001157199466832
0.24542284918911964,-1.2162710225821391,5.469982296454587
1.1525991350106037,-0.44832310672258224,-0.961876932390115
-0.22423577212349852,0.6926889116345142,0.587424306110808
-0.32606130576013626,1.4259420274975507,6.5101450564164285
-0.030911417604135967,1.4583383367524927,5.218448364473295
0.35571726157601685,-0.573360729257128,-3.5583230376879134
0.8495868450948219,-0.11724767712955894,28.943861916269093
-0.1221540151116833,-0.8593713169178759,31.350473400879068
-0.6808515740173174,1.0300024885667107,4.403131091172257
-1.0678765764865552,-1.648152918607603,-14.391943590440718
-0.07667936270573186,-1.3632765570451368,-8.936101413393985
0.5729627259567562,-0.6358466985837091,5.817392889695517
0.45794707630974174,0.25147344447120185,-5.766068866208775
-0.017817549053938987,-0.3211479800532944,-0.8170226840933198
-0.600138799235613,0.03306390572946029,-19.96745538918046
0.14676526338688947,0.04753462216510061,4.361815159008643
0.5718048788649898,0.23327972705604186,12.084426041815277
-0.03681765651702741,-1.0344629811999486,-12.143733634764423
0.11236848879221897,-0.33935977058127165,-3.4350002560034016
-0.1505043256504516,0.5776123357717127,-3.5902060721950626
0.9154992680625726,0.28022915571566703,-24.848954085549657
-0.4382002673386686,1.0933066330173304,-4.7565007725723705
0.1855356209665554,-0.7462242754132891,-5.691645557455409
0.3944280300121126,0.906261413418604,-13.93556966972329
0.7255225582535588,1.4666247402727144,-8.745405206894937
1.4958847658844756,-0.14259029182964555,2.468532710856716
0.6754538092042119,0.2659301443682517,3.413890470753744
0.5992132354592584,0.2251894342996509,3.2486855223828472
-1.4702370890213132,0.5356705893698189,-5.759521961535723
0.6064039443038369,0.3879211149003179,-8.249045194983719
2.293717612357178,1.469487707806396,1.4538797545034952
-0.8300109855676734,0.513364935613181,-3.9314215855968198
-1.0195198494057163,0.8645017035225613,10.364170105858024
-0.2146538422260227,0.33152673050070786,11.643086471236403
1.0212481260989013,-1.0417702820212884,-4.726131262518513
0.5247504922968238,0.4333603521044893,-16.334869586572587
-0.47712420646933207,-0.22995602264588777,1.8335976313563973
-0.03599018172719132,-0.6350874191471966,-6.6889549962565376
1.0370389817739079,-0.8943706438088923,8.222970703188967
0.672619748121479,-0.0703970805746775,7.000995177303652
2.428876969522979,-0.6074641019327619,-10.50609359178075
1.0056866803112163,2.0396722657066246,10.482305593614218
0.3535672160026291,1.596771898021652,13.922773402588106
0.6147262758274484,-0.2669302956497443,3.8622388289878855
-0.34898419091555255,0.7091571718730512,6.101460366504673
-0.977773001532967,1.156962497058231,-5.209280451862826
0.17195713216759081,-0.17283937189547308,-8.59160398168045
0.4905610438096389,1.8482333679679015,12.548868714256633
-1.395283025065327,0.9221103681405612,2.4110911704715514
-0.5223564651356952,-0.10170911376114855,-0.9167519963405469
-0.36925590182896817,-1.7992991295513863,-0.6892501949678126
0.2656424025142851,-0.9659552082324909,7.527614653068494
-0.2604660588653798,0.31869254278046505,-2.1565126620908956
0.445096710344572,-0.43826394902083166,-4.984279010854796
0.09811224622199123,-0.020753261598423552,-3.0474360581146103
1.0603275091568074,-0.7873135419683122,-1.6249720102336536
-1.7111676596244927,0.24692273113875693,-4.864713520682181
1.6571246380429256,-0.45830203800475466,0.882823106652884
1.4176740129993604,-1.552705874771751,-4.91598626876554
0.05031708614713537,-0.34164325129870976,-4.549278426221724
0.6503232142523461,-0.5720258872130943,19.865391977271468
0.6065484004132948,-1.551657639191818,0.0726048398584936
-0.7372896277599319,1.4231771863257672,17.079861809188028
0.16466506584920662,-0.07605096615502983,-10.047646079403062
0.7781741790995664,-0.32686607871554535,7.548167342810945
0.30981675860748836,0.750374811492497,0.11318007124972324
1.0513207678487513,-0.08259523896167562,16.91010018318263
0.09499611006916124,0.767293626487417,-4.651863471275594
0.08075098862302005,-1.4806546192802672,17.9232298935285
-0.7678037460245601,-1.0366558675618027,-5.886460984983551
-0.3645380497066375,0.545227590984845,0.07627448212862024
-0.45971768103806804,1.4918973608952575,-11.560859332054989
1.7054835177554424,0.030011526171675736,-0.34551151621253356
0.24050555214736213,0.21643426434926666,-2.0682310363823815
-0.9994265013581795,-0.823443904193359,-11.093858227166963
0.3985983881614373,-0.029935876835249856,-18.459965521446364
-0.1920036966310444,-0.7089367136405759,8.964069423491676
-3.053764380426305,-0.16023811578968905,4.951375782168624
0.4798523711538174,0.722280123634716,-6.96338517135318
-1.5526987831768355,-1.9987639441733347,-1.067936364693857
0.578464420256242,0.21302572639485617,-7.252038456637648
-0.96126359903051,-0.8045415853534423,-1.3807465634608822
-1.458324460393154,-0.6465822153813857,2.500426887487006
0.49434165098237876,1.1381727692810775,3.531156570701145
-1.4941937652746844,0.29543966465863936,-5.009768736160316
-0.44669920347712,0.9336296282088858,-2.0980437698718157
0.20437739492116297,-1.7637747157512904,5.161168844666463
0.612232523128053,-0.410216819271666,-6.593264509967057
0.7448845364406519,-0.45366712472299964,-5.555571154574089
-0.036281288553702225,-0.5894296712511073,0.8185020859733498
-0.8323953476886892,0.44023450438022393,4.947622485940051
1.923815425970925,0.8959214811709535,-4.239497512401261
-0.6059813205385978,-1.1067788698814538,7.9653079865309016
1.8035889814864974,-0.9626625643799945,-0.7006411599606449
-0.4525249732840256,-1.2519574324073268,-6.727425303041629
1.1612856933418074,1.1476066746067717,0.9441540724620351
1.069965538950133,-0.5147349220683212,-14.566902940280658
-1.0455342473768945,-0.10138078120071552,-18.358990412908597
0.35528450700622954,-0.3322106794104193,3.390251296105697
0.7553920291908554,-0.9636565849010378,-17.763233397671936
0.7009821215232441,0.3732609736504448,-8.019470832016612
-0.198937450283896,0.3830268697572058,9.986705888993866
0.3019600454061449,0.9413255845495389,3.316940642614485
-0.3946896809955576,-0.2254200823580782,-8.499668680628096
-1.1718133792211223,-0.2970874212238873,-0.14990428661929878
0.9840122369402405,-0.585521746777713,-14.338957280829991
-0.5596814219185569,1.4881415667730762,-11.391903140756272
1.3797581916062172,1.007566985398126,-1.678180965705474
0.6024509012396099,-0.04038520788361578,5.874495514265937
-0.8926466735128841,0.6489736060200502,-0.33729521000650875
-0.16119831954123737,-0.5858437473736149,-0.8429426710562539
-0.28638491539517374,2.054474761985308,-6.5034433027034835
-0.8708876496519611,-0.5915662502667263,0.7451824253011115
0.5014295898933301,-0.37968895545024683,7.960178154738346
-0.47861407386118443,-0.3710315178948072,11.037480234615574
1.6316915136307972,1.7012349653430763,3.427734110208479
0.8608912410184296,0.1476024359868073,1.2197818894064818
-0.8801890645415797,1.0844185634328798,3.551726778037381
-0.01900052154731654,-0.11009695831866166,5.253602080090381
-0.22676019216958399,-1.2129749711766358,-4.817763740657256
-1.5645078538111965,0.7754801738720201,-3.6911191595649044
0.9312556787681191,-0.6264565463300497,-6.634449740226703
0.9498088152113293,-1.3185225114045476,-6.287994264700616
0.9255012147023857,-0.41607554416018283,18.83029536322861
-0.4569878575935375,0.6316571009908744,7.849377222952587
1.0689859716189178,1.7642850588125585,-6.847397056736108
-0.20975293542255413,-1.3874779344949346,0.42316779241044994
0.9351477795910749,-2.1990579909687993,3.0748920265025554
1.8125278151175406,0.9301569973916998,-0.899584325212619
0.14010988130475283,0.30005125894933793,-9.637543939105328
-1.4191487771444868,-0.5634729105734868,14.46528642388544
-0.31690119652834625,0.41836191663359856,-11.884246050321579
0.6409858663835063,0.7294430737809866,8.683403811601966
1.2198743790306215,1.912068746537096,0.5403695634447482
-1.133792035393578,-0.13034193228200616,-8.134718048962176
-0.19054829766145195,1.2798001716306422,-1.6150411454896867
0.23333912626012182,-0.4517559415950883,-18.504991327810163
0.43499832426284113,-0.5096687406137471,2.7497256944050337
0.9104236030030839,0.42377343019450475,7.284646065701588
-0.9484396564537968,-1.114967504195502,-5.3006095436467096
-0.4234782972255359,-1.301959026015963,2.97857928006686
1.0079664776005783,0.963193097140422,-24.988942747107412
0.3923349111243075,-1.9630750679485995,-5.313955414362246
0.44838065078168743,0.1133482551732908,-13.374015901317073
1.1253234986642537,-0.3247422640409677,9.252926034964265
0.10405338970908944,-0.3730201923150563,1.9431318724101172
0.5280034220718364,-1.3323052935164283,-0.4723757850072069
-0.3145638619172873,-2.03590243500699,-1.8922869804373184
-1.3450100202683752,-0.6609084760600732,-2.4288838588631787
-1.2952578852810872,-1.1652180020300364,7.850624781487754
0.07432055368263171,-0.4254190248049608,-10.41752804885563
-0.1995607179962165,0.08803609612487993,9.322531272553473
-0.654603168524978,-0.7417602315025392,6.995888948805859
0.31801429641916884,-1.0725253019909582,10.307543310626489
-0.8902715521082489,0.2900413643555045,-3.479366684274727
0.11133726638297002,-0.7618346905784482,10.814859205102037
-0.019522558320273307,-0.9595318228949353,10.007859257744629
-0.8399889146122471,-0.2991532708608496,4.495976919139571
-2.298205880537852,0.2854914361618232,11.228697457953762
1.456527386472777,2.1087484299986263,-4.413016436826329
0.3166372357039576,1.6135615510922865,-0.7314789196366884
-2.664125939262139,-1.2633809410664474,13.47599579628929
-0.42642861763352236,-1.3242492171803182,20.173903802198087
0.39378773124931865,0.06471737218755258,-16.46634781578608
-0.22814069070045617,0.5569989401724988,9.370434368925864
0.5803301126032293,-0.13170556257429109,-12.581159195347471
-0.9732675852492401,2.1723327962554255,2.102915014503142
0.1751677292180687,1.1770702202202439,-5.878981025013955
-0.053483692735156345,1.640057367649072,2.056890407178121
-0.1830619869619735,-0.417870617781906,-2.9823864939612728
-0.22102890178833562,-0.8968795864161179,3.9407345174029857
0.19975955519262756,-1.0702882915960799,6.497446906254494
0.9327214136880919,-0.11378156431374926,-3.4815581562611317
-0.5301198002000516,-1.2583499172829835,6.685633960121457
-0.4072400240119308,-0.6337920536966861,-2.8757562650431656
0.16056499174251157,-0.4307697393922684,6.848194568419582
-0.12014997562874898,0.944284729199289,11.774543938903058
0.38560229234432525,-0.4728755590295527,1.650850837802196
0.7182907357543429,-1.4070641104975221,2.331126363666874
1.2911889028508758,-0.44747327272963666,-18.027220504245314
-0.11644414827166405,0.18858291237770644,-7.718904782638552
-2.2772979966603657,0.5609180584133466,-6.226565784556466
-0.06962453945512911,-0.9216590545137943,-1.506596141383785
0.35387042688284037,0.6473751158514062,-14.000228868967703
-0.18695501653274957,1.386825593941044,-13.01066078757485
