AccelerometerX,AccelerometerY,AccelerometerZ
-0.4167578474054706,0.19774991367911982,10.39921035498849
-0.056266827226329474,0.3368361362314052,14.8084904924909
-2.136196095668454,-0.5976572586264365,2.0592545721663584
1.6402708084049886,0.3379366099620421,3.1143587828654864
-1.7934355851948631,-0.730028117705647,9.4045280048068
-0.841747365656204,0.560022058497286,1.756416253160447
0.5028814171580428,-0.1881453897482699,6.067012784369126
-1.2452880866072316,0.22596107662380135,2.052196421565403
-1.057952218862339,0.25554196785886957,0.20936697945500676
-0.9090076149268493,-0.7585115225390326,-6.397207550073491
0.5514540445464243,-0.5537965268617788,2.272571288045196
2.2922080128149576,-0.16412902313209554,6.530454138210415
0.04153939299840346,0.4248010428031259,3.394738038002373
-1.1179254451135168,0.9135054835995078,-1.5502609116776298
0.5390583205807888,-0.07424105148695632,3.3713885900476157
-0.596159699806467,-0.6988224523750899,15.80544617132592
-0.019130496521151476,0.21819577256591932,0.9394811506203532
1.175001219500291,-0.041930427981571185,-5.197810473397356
-0.7478709492938624,0.7290590474474038,17.598530107418302
0.009025250973325124,1.1785954763808106,-3.6450886891760654
-0.878107893240342,1.9156788821223303,16.00010307111728
-0.15643417038462365,-1.660404840782051,6.727621234626332
0.25657045200129563,-0.4929852568511962,-11.984226006346987
-0.9887790487696217,-0.0960824565097335,-0.36013787077296755
-0.33882196602919634,0.7536579293753193,-0.7208161561784815
-0.23618403085260128,0.6496361781879872,-0.8293439011215343
-0.6376550124843012,0.03593418000341157,-1.0469646136548634
-1.1876122863852843,0.741614046538866,8.100935448602634
-1.4212172273041268,-0.5686951372765738,5.1652560390537205
-0.15349519567694914,-0.38453333453887567,15.249822745697886
-0.2690569602160135,0.27772181690660375,-0.41927143124890787
2.2313667888866044,-1.080675274210254,1.0254730101618745
-2.434767576521044,1.5387359939272038,8.465337771922059
0.11272650481664892,-0.8079649866116945,1.126353337859267
0.37044453666323424,-1.1438008308968015,-2.1395153264211215
1.3596338626725961,0.29669513566806444,5.264218016253862
0.5018572067813133,-1.9207477271003446,-7.711618724972741
-0.8442137038298618,-0.44728371789815247,-9.076015739932634
9.761471596093479e-06,-0.18530621098365718,-2.5949716310945146
0.5423525721490291,1.2535672542353968,7.307109497601692
-0.31350819699340887,3.0094311885565737,10.201351875895622
0.7710117380694115,0.1516470922636853,-7.779077048882135
-1.8680906545637634,-1.298238354467522,-3.369176270928262
1.731184665980468,0.24103720692640693,5.242322619939247
1.4676780105734129,0.6429542438251072,4.3939497772681655
-0.33567733852384746,-0.9317137468665752,-6.172017250584507
0.6113407795737174,0.3263307502618375,10.455420886215581
0.047970591868188375,1.5523346151134727,-1.0593183564236957
-0.8291352890147787,0.4712998932992131,0.7072124557135242
0.08771021840833142,-0.7941500574453586,-4.6495830696559715
1.000365886550695,-0.5686120029765696,12.492557858683181
-0.38109251751534995,-1.6435428113896149,12.068110745931799
-0.37566942307899365,-0.44690427050504,-0.6908564487425248
-0.07447076289398098,-0.5902246024719148,13.69907414548772
0.43349633007657085,1.3638252897418415,11.538886406333258
1.2783792302718682,-1.5527578328277152,8.322504435618043
-0.6346793051793623,-1.5800695226876613,1.2939757356331256
0.5083962426834318,0.17428368055647953,9.988640384294861
0.21611600626368202,0.5710335188840954,-4.8808172153586185
-1.8586123861234976,-0.5609986006931457,-3.4104871218911863
-0.41931648215268885,0.17514072234177805,-1.0574702416642041
-0.13232889843674336,0.6463503243614719,7.079826240633836
-0.0395702396936057,0.7168814293888305,13.946899248718516
0.3260034333869806,0.34828060843862363,-16.82158879791838
-2.040323048728715,0.5209562683099942,0.2143916637487371
0.046255523141696904,-1.5514602525265606,-6.190830315942413
-0.6776755773280415,0.7783658777042087,5.829451247478423
-1.4394390267386181,0.12268330620373355,-12.11358544381948
0.5242964300103486,-0.8369324548151991,18.296198431593183
0.7352795760652026,-0.4074564233668153,-4.436200433470193
-0.6532502677920357,-0.3060691197309398,14.817688052991064
0.8424562815713401,-0.5591331870280085,-11.289194609162701
-0.3815164817650862,-0.17973659587118762,5.880527122197774
0.06648900914614486,-0.40374842284713686,16.920435281914447
-1.0987389469960565,-1.460153974462839,13.445672256765915
1.5844870563956763,2.1207828208907245,-10.237200396321251
-2.6594494563834883,0.3615065166711153,-10.64192715572548
-0.09145262289065814,2.181731186753019,-14.543716088225944
0.6951196050469914,-0.29270937803343555,5.234771681567553
-2.0334665461226136,1.5849359756314727,-13.9665984437309
-0.18946926471238082,-0.14694318764881514,18.787549526546925
-0.07721866535295716,1.5394133875612162,8.655035792460325
0.8247030054369816,0.8998890940029004,15.168680356776918
1.248212920597034,0.7402516839885996,-4.0312063701752034
-0.4038922693379395,-0.19320397028540165,-1.1593752788795815
-1.3845186665358649,0.20199778833634963,1.0081713669024528
1.3672354239271245,1.3113060843098503,-13.041442102632445
1.2178856330562904,-2.000076695810401,-13.027171104704678
-0.46200534815338046,-0.6981645831332934,2.0626193501125907
0.3508884940877463,-1.256572818413833,-3.289758041012909
0.38186623412669696,-0.9266079955422619,-0.08748619876115617
0.5662754414424561,0.6003103941040154,-11.116651069992876
0.20420797891411197,0.8178505918529546,6.412577066870195
1.4066962416613704,-0.20937184386589455,13.763066605059889
-1.737959504384568,1.1134162271793842,4.242820931526666
1.0408239533907289,-0.7432973334218372,-4.453179221295266
0.38047197021500045,-0.6044583415956847,8.472450567418129
-0.21713526874487937,0.11581714340030545,8.493220919755093
1.1735314984949534,0.3927231631058914,2.879183791563242
-2.343603190999962,-0.13753852950614973,-8.782484297956586
1.161521490740773,-1.0713342164990416,-18.910019299338735
0.38607804760359454,0.5587127202999242,18.41681860587241
-1.1331332736769826,1.6898812752263495,4.991830749378771
0.43309255465669094,-0.3789877882091447,-3.3474922341120457
-0.3040864388013156,0.020505118896650996,-6.742686968003343
2.5852948680645493,-1.1104925588953851,-23.081399061960962
1.8353327228648249,-0.008720589985642384,10.582621426453013
0.4406898724151096,-0.9155590629051246,-0.656117445396281
-0.7192538414266773,0.16704868848906673,3.0397087808949586
-0.5834145945790076,1.5412878824408398,-1.0143652633532538
-0.3250496283817861,0.5178361568743584,-0.6447816076727874
-0.560234506237797,-0.7253153530750016,5.288564500290301
-0.9022460680705018,0.7988103091840112,-12.930969709831214
-0.5909722754694454,-1.7215295165978792,-6.434262061032554
-0.2761794922507378,1.2002388522151475,5.370098417621623
-0.5168838937325868,0.2964903844193803,11.439340371721352
-0.6985899499363887,-1.0644030565082547,4.010544283529253
-0.9288919245238192,-0.32824449276059225,5.065937120234399
2.55043823587966,-0.9108697746931266,-8.653134150546412
-1.4731732477998856,1.9821633344362959,-6.407201669966156
-1.0214147305220664,0.5611641980874248,2.8151971112201895
0.4323957009796062,-1.0110747500841566,1.4074022969167619
-0.32358007007652395,-0.6771006703271639,-1.7294336974883284
0.42382470786588067,0.148227435905616,0.07623064760046012
0.7991799950350154,-0.578089148759065,-15.840996757756782
1.2626136633248202,0.2236902849466473,-15.547966329051235
0.7519648492148806,0.3665931977064946,6.435590726243098
-0.9937609831185908,-1.4544598168842944,0.3033590862521998
1.109143281361648,0.5998484606539068,-7.797647276049968
-1.7649177282757555,1.6568692363782567,3.001735065213527
-0.11442129703012066,0.30633630380025456,34.918769323735546
-0.49817419392175855,0.6079534369773959,-6.090396042476499
-1.060799036330432,-0.522741852909051,3.9416504445475873
0.591666520727679,-0.5179123826899711,-0.42929141448381003
-0.18325657377958135,0.29161350399694896,-5.553133749296755
1.0198547293692373,-0.8871972678804493,-7.547031785990202
-1.482465477822671,-1.6165354033497437,11.016479659352157
0.8463118918420798,0.8121538529019011,-5.204257011192521
0.49794014836682077,-0.656298843285933,-17.443266253599287
0.12650417530650623,0.20371847304077348,17.672996829291094
-1.4188105511485343,0.1005974098500913,-6.360438574731733
-0.25177411836982405,0.3941610453454233,7.612641183232343
-1.5466746112644163,0.5830536763685569,2.8143291390343554
-2.0826519357449493,0.5115273252763909,-3.2285175317359287
3.2797454011113993,-0.3028474121346412,17.24990722366995
0.9708613200402733,0.7999706684814757,-9.32334146093767
1.792592852398284,-0.37036938206212205,2.964832245292227
-0.42901331850984487,0.34152201058569115,4.509377142746515
0.6961979796114306,-0.6309632677088037,-14.730136270335803
0.6974162722769295,0.06960731156306942,-8.305014340935891
0.6015158136671998,-0.8600960913932836,8.252150962703164
0.003659490714469374,1.3713204719910048,20.333354433183885
-0.22824755819403428,0.31171596435960985,6.725228617680594
-2.0696122626654505,-0.7410513723690458,-23.33543400252436
0.6101440864066574,-1.794632567261103,11.112275344204164
0.42349690044287275,-0.7348058747212511,-16.445032713721066
1.1178867334508418,1.284566053533697,-9.012799579570562
-0.2742420888635259,-0.6545758651759813,-0.34110160559432634
1.7418121884722342,0.9603222079687327,1.7992234187502696
-0.4475008761926458,-0.2322485320299149,-1.5734925495319874
-1.2554272183458584,-0.34682333476478205,-2.7257631685623256
0.9381636712741442,-1.0658162902078807,23.86156975201542
-0.4683462595582319,0.26457867412032504,-14.671070232822284
-1.2547203071128548,1.0049441504937833,2.793732039081705
0.12482364638584453,0.7522701654178005,10.552553276246439
0.7565021430525523,0.4967969781631213,6.992220195515567
0.24143962884169234,-1.05750513080247,-16.493754152758456
0.49742564892473723,0.0704338841222101,13.832111107404849
4.108692623805201,-1.1645267994987059,13.274120741159052
0.8211208773119116,-0.8760992440237212,-8.40610080687242
1.5317603163169562,0.3345956986031069,-6.7917189365578
-1.9858457737926452,-1.0941665468358064,13.651293458574996
0.36505351644084066,0.44512688150507185,1.8041275878288947
0.7740820334046989,-0.35226589943695574,-10.139768125701655
-0.3644790916126585,1.3869901124185693,4.925818795484299
-0.8759794776653947,-0.20590438735005992,-8.364202117107135
0.39652015868670865,0.436471659807916,-10.589883333525469
-0.31461743565593103,0.9435375655473877,-21.31635103344862
-0.593755582882607,0.5191055570821175,3.6828174156944367
1.1495005677179824,0.5719241557150861,-8.28295711844316
1.3355661683407218,-1.787706035213936,-9.91488843868456
0.302629336178099,0.8203710362909347,-4.952102329253799
-0.45422785471611027,-1.6770214103773435,7.71192698888305
0.5143707174654486,-0.749026163817477,-1.1477695200279825
0.8294584306133939,-2.5143787109977893,8.954735239894113
0.6306219672771203,-0.4151419697731788,-1.3107085579746636
-1.4533643496567887,-0.7521332561837656,11.274687518533664
-0.33801777735622784,-0.3245178909872563,16.776826004353005
0.3591333317938045,-1.0645106516784093,-0.10871881994861485
0.6222204144679329,-0.2558278227446522,-0.7184258478087502
0.9607819448432281,-0.8138258149486454,-16.72089929509621
0.7583703471667697,-0.28229630048913434,-5.494418140715734
-1.1343184830306183,0.7282368331537583,17.141838095804168
-0.7074208875637867,-2.255939498457608,7.143196701109434
-1.2214291650957685,-0.1406289072448084,-16.45415791371515
1.8044766415797258,-0.2460877615550553,-10.322849056908275
0.18040980691154634,-1.6354064332773162,-6.517718733535462
0.5531642741578121,-0.5283529868133336,0.31649439647863
1.0330290659276213,1.320966314357683,0.6416729945793144
-0.3290024347007063,0.2680117840883157,-0.5328332294124574
-1.1510029441411485,-0.6558069632703147,3.882783230541195
-0.4265224708552696,0.6356478884472019,-0.17396421872881168
-0.14814719117730177,0.26448360406258725,-6.172073755801387
1.5014369152565779,-1.3720743291855664,2.1358855983226164
0.8695981975449449,-0.45774659277223734,-26.760267468055808
-1.0870905748424415,-0.13462064979666258,-9.621574161123021
0.66422141339563,-0.07672839496727196,-1.6872532601158468
0.7348846677409518,0.2518290463107146,6.077470390616395
-1.0613657439308382,-0.08151416467552526,5.71451198299321
-0.10851682391898448,-0.0398935216805006,12.779927348797655
-1.8504039737914764,-0.6186938175159893,11.654273890651911
0.33048806399892017,-0.4545375030259945,2.0202726501788058
-0.31569321030277364,-0.6041318688756462,1.3967523972490294
-1.3500021026655444,0.42016293984183195,5.409147883562765
-0.6981709975828928,-0.20251138230618648,-5.214456462963479
0.2399511982728864,-0.6675082529730677,-4.6150455428582475
-0.5529494395632222,0.6648573576048594,2.003742185828377
0.29952681318015834,2.3354379885233736,-11.109868593825068
0.552663695604199,-0.22118042596625312,1.7658156523889095
-0.8404430124914968,1.1870364182573008,2.4911508537308165
-0.31227066965864375,-0.60009821039952,14.33578509547188
2.144678089111037,0.15215679333482765,-12.586660446137136
0.12110558157832865,0.8511838935027901,-6.201687431862615
-0.8468287519418934,1.0693223667950456,12.023073990819109
0.06046244900291209,2.0793766512365606,-6.128534243352776
-1.338588879868523,-0.5124936334423107,2.882408607384771
1.1327460759333483,0.05384387755844742,-7.411117163873594
0.3703048427472401,1.3304175782166014,12.884772349364564
1.0858064040220967,1.2793205054997814,-13.570762438575976
0.90217939544059,-0.8602168990603795,-5.510233400249999
0.39029644981076206,-0.014181508717577354,-8.2714174522929
0.975509412228565,0.9983585209007867,12.005603669899305
0.19157364660777806,1.2182004204149677,0.8028126689102448
-0.6622090117942488,-0.9461686365396965,-18.139981000359636
-1.0235149847980303,0.35467061705308983,16.36687373677564
-0.44817482334436864,-2.2166683255468347,-15.43768338015905
-2.505458132074395,1.013292871774317,1.9042617605713348
1.8259944571346691,1.7577308234162827,8.68541846232423
-1.714067411096033,-1.0926663036129547,-5.90913058219754
-0.07663956399736893,-0.2182566565817696,-7.6081942230430055
-1.3175672697540375,-1.4145786557631719,-13.65282874432205
-2.025593591834587,-0.45842818574165745,-16.715464873116762
-0.08224537503313031,0.5429692440458065,25.19570400210501
-0.30466658484965703,0.5850760439251593,10.190382979102349
-0.15972413012138645,0.4052894562380805,12.209433285006217
0.5489465598226189,-1.3881684753469057,-17.97524444614471
-0.6183754850876789,-0.8412910231158969,-6.069889569510169
0.37879446570697467,1.8655954984261842,-14.456932732480327
0.513251444309333,0.23131711658887785,7.15088171913615
-0.3348441254577186,-0.42425085774908444,17.751721469374477
-0.2835195163633108,0.2529241159081826,-6.950125040015292
0.5384242627906191,-0.5786864172433068,-8.003025135857529
0.05725094652111058,0.16544826970844606,13.512578656880441
0.15908848665021955,-0.7625585835505574,-12.012197459956614
-2.3744026840662538,-0.6724641467847848,6.085755734644681
0.05851993528067137,-1.562627547294411,-5.684049783284879
0.37654591103404106,1.7514967848490575,7.244676689554119
-0.13547976430318212,0.7193346780121523,-5.387387461719194
0.3359083951093597,0.6245540455224453,-16.20075517289728
1.904375909180253,0.8694210135895347,1.5869899398419973
0.08536443342265025,-0.12347384632592827,-15.522784121789195
0.6653342779222267,-1.0795839265027458,4.284356262262824
-0.849995502715066,0.5130650666733377,18.99948927351096
-0.8523417966884178,0.6907420810383345,12.814641595690954
-0.47998511153265094,0.538393614311805,-14.182527075025087
-1.0196490994759295,-0.38911879131936244,-16.659087328610568
-0.007601138413295659,-1.5070758822116932,-26.297265548262438
-0.9338306614168933,0.7940094514719284,-10.783564587370622
-0.17499684373475996,0.4121461066519252,-15.575634387299466
-1.4371434322307797,-0.05674652003068351,-10.198605279407653
-1.6522002912415807,-0.23141903768427213,19.485881311049067
-0.6756617890008304,-0.12622448413605752,3.576715344903783
-1.0670671237833231,-0.5583164334164079,0.9904644537647583
-0.6529311451382788,-1.4675814225060064,-7.18218579746127
-0.6120947501678102,-0.10364898021773093,1.157200084584614
-0.3512624610927729,-0.4285946531299669,5.039596951476248
1.0454779876385054,0.3215059284045003,1.3838072103736283
1.3690160244009684,-0.3067098110738141,8.713890843784231
0.7253532593570585,0.2873168880922344,9.49636239779726
-0.35947445914503007,-1.2013658370890563,-6.863149261311316
1.496951789522486,0.4539145844076185,-10.872328815892779
-1.5311111075924402,2.0687108811461163,13.183152079391176
-2.023363939007854,-0.09595827005433091,-14.378845449127342
0.26797257647863143,0.630971561952857,3.5819551149093822
-0.0022064454096617217,0.8775118977236104,2.826154193975166
-0.1392918827686259,0.3577469273589399,16.60978570614389
0.03256546931249139,0.24514198473204302,-7.396126432697752
-1.6405602248048416,-1.5539483498594469,-14.78159559889614
-1.1566991705181415,-0.8120165317339593,15.248720765549242
1.234034681364575,1.5463387219479314,-8.838136097984462
1.0281848991561438,0.20800302028545717,-23.64899250077986
-0.7218797261099033,0.21475951947291677,-13.30854246434545
1.9331569663490777,1.94295564292356,-0.5132040683942822
-1.0707963256371735,-1.7060410636932102,12.328906093472412
-0.5713816078832427,1.0556915650026215,4.998387738924119
0.29243206732993554,0.6550321305353255,-1.0583581528029904
-1.1949998949248835,-1.9396296949669973,-8.20922872023089
-0.48793054419186477,-0.627642287282944,0.4747301969442513
-0.17307116522547483,0.42917757167632353,6.427799283063336
-0.39534640116680836,-0.6971483560059718,-7.994290713620842
0.8708407646082093,-0.7592253416328627,2.2884141179184465
0.5928067967811247,0.6104377612548615,17.39550347252087
-1.0992973091284242,-0.18335730645225787,-1.8161071424981423
-0.6815306444640257,0.1943358864583827,-2.7768592140040145
0.18006668493521302,-0.1570686006592748,-2.4654921586602203
-0.06693104399651724,0.13841901754568675,2.1119585733664694
-0.7877495403193006,0.30722058947587705,-6.470339445345587
0.42475367227529126,2.2131495733997437,8.899826362898784
0.8198851165343835,0.4092616610451587,4.49969985237746
-0.6311186825850962,-0.6961141225146247,7.237632594593142
0.7890596485823135,0.38597931932434,-4.041191290268601
-1.621673802981331,0.2639192977172961,8.599634830819756
-1.610499258510963,3.3106800582477436,16.563086186603947
0.4999397639700475,-1.4168674160854964,-2.0767482429277777
-0.8345152073854781,0.6966166609277529,-2.9930598953568226
-0.9969596870741779,0.26461151276943007,-0.5630356708077442
-0.2633880770504882,1.5343554608822227,-6.643036590367504
-0.677360491743074,-1.0156929487583688,-2.871048692619712
0.3270670380187368,-1.2266030485008859,11.705682521201847
-1.4553594449782488,0.35630181554482215,3.005344804267401
-0.3715191243558081,0.8416144443462651,-3.2820294105722176
3.1609659695458836,0.44428556247928264,-4.322273818306215
0.1099510128207583,0.6367121527991919,-9.117246209966366
-1.9135232182970854,-0.041278486387922315,8.651619106523667
0.5998204294582221,1.0072356139041962,-8.761924563341278
0.5493844654591697,0.13266038243141628,0.1655840803919453
1.3837810348694022,-0.49985877906303144,0.7046875519305873
0.14834924340148598,1.4712323029287684,-17.029557231588413
-0.6535414440345464,-0.8585360773188876,-2.7407084634918717
1.4088339839624746,-1.5989049019732768,4.084052450659575
0.7120612274258531,-0.3915838087264395,-22.284260374989913
-1.8007160407859215,-0.13447301272085968,-13.578082789010109
0.7475989417792678,-0.06182993958949277,-0.1409114747180545
-0.232897001048777,-0.29667200946776284,-3.497873880694724
1.110645280314125,0.37775916980219115,3.2676866722181597
-0.3733388129364676,-0.3367716402342027,10.840659235317322
0.7861460698232878,-0.8661256069067167,-0.5810387447803972
0.19416869565822822,1.4005224776651435,2.691537127523249
0.5862040977207661,-0.1717262462083753,2.0196252183739003
-0.02038729177207965,1.0954277645467976,-22.36046531395551
-0.4144085975292956,0.17621844293981462,-4.9500088439552945
0.06731341235202175,0.4875778093681058,-2.6692306866022664
0.6317989237843664,1.5438765972547668,8.609156764710894
0.41759273052626394,-1.8527593302644443,-5.495690680522964
1.6151762685116375,1.128326738862537,4.919366589971183
0.4256062110933309,0.06699714702279543,5.411059853754735
0.6353637577374615,0.874328164466829,-13.239640372903843
2.102229267452569,-0.44666667661045595,-17.907015960897
0.0661264168345027,0.01017655291922074,10.824970792976252
0.5355583505835698,-0.15139007589662046,-8.428557324050097
-0.6031407921579915,-1.0994121244898645,10.040469421091826
0.04195762919699333,-0.06168653545336215,0.5458317421518084
1.6419146374719469,1.8105316614232414,6.65094384384974
0.3116977066622208,1.2735557900509897,-19.626046763023645
1.4511698997815163,1.4049878715977444,21.127149651356596
-1.0649278800787134,-0.22310066895476163,-28.074571066057228
-1.4008454548115612,-0.1731882010335036,-13.967752287287745
0.30752552669726113,-0.43958518575806377,2.641188832437912
-1.3696386726262684,-2.0534471055257284,10.92516928211457
2.6703372447996943,-0.23801487992648404,6.646015804780754
1.248450298019977,-0.7441938625676129,8.565535342767875
-1.2457265530543504,0.8750106534750496,-11.058228224201141
-0.16716877435038,0.9328418955880727,3.715794901506154
-0.5766109302850346,0.4397763816548952,13.440123861107132
0.41602174906776257,-0.8888065437171266,-16.421272009522955
-0.05784726264190014,-0.590677952435978,-11.531270119690557
0.9318873578923119,1.344860476233612,2.0131626071704636
1.4683321327196492,0.32763107959685683,13.985658597001871
-0.22132094273129205,1.0102051837970971,7.228732781145771
-1.1731556214427838,-0.4427352374938638,-10.717236113667877
0.5626690781293578,0.9690051889409822,-5.673344421667272
-0.16451505729345556,-0.32069117709417355,-3.663499063650794
1.1448553760006088,-0.4806853755889943,-15.460347243322264
-0.1521176868008164,0.2746999568249692,20.40694737780113
0.8297890458851083,-0.7193488191516558,-4.96020610236695
0.33606595164985836,-1.1453554337654894,-6.131668118319032
-0.1890440514657522,1.36432789024692,-17.44968192185286
-0.44932860071632436,0.6977738758177617,1.8407413228681193
0.7135244477011201,-0.46875647280124383,-0.7954522140454678
2.5297348742134473,-0.017271622377043345,12.40629619296457
0.8376157939660211,1.1348757695968974,8.625737778042016
-0.13168240325184408,-0.508924537162201,-1.2390740139756462
0.7075928660409392,-2.4149686935396932,5.85476440008347
0.11405387792735878,2.26727390426691,19.336815387754175
-1.2808951779426705,-1.4689580238411875,-7.32252494184536
0.3098462773847513,-0.45594475236602156,-3.9205000815885613
1.548290693962678,-2.19190798280299,7.512151844515308
-0.31582804317236896,-2.2000219885513803,-5.947453010361162
-1.125903780697406,0.3275437242416135,4.75317258695806
0.4884966659384203,-1.3111680946998219,-10.835930156560455
1.8309466569846282,0.6330827101716543,8.228397668612473
0.9401759927377288,-0.1591265651859938,7.047717761242356
1.018717046893108,-0.1660708804974079,-5.854342913275612
2.30237828854235,0.6153042125339241,-12.699409029426747
1.6210929776731056,0.6519162877771204,3.2552734660505385
0.712683273479498,1.3592943679225946,0.4573687169336308
-0.2087036291125146,-1.3825884148505516,-13.662462572560376
0.1376179913049609,-0.7463189898492898,10.20269240739287
-0.10335216830067509,0.6727652589278552,-7.310625695880891
0.8483505668983571,0.7667442943927492,14.967119558964185
-0.8831255611139024,-0.5367438693462067,13.43316499274114
1.5453868264718487,-1.2325391431835504,2.5663714688340917
0.14584007314382133,0.0028874105646923753,7.346150345718113
-0.40010605647715836,-2.996761604762725,-14.332650999768791
0.8152060414373764,-1.6787097440495127,0.17831225630082378
-2.0749223651627684,1.1218865988230655,5.68641805437405
-0.8344373905441147,-1.291149046661543,-12.639749889746897
-0.6577184471075346,2.0409177537355614,-14.590293531182535
0.8205643322308263,0.11410724455819124,15.906598855181908
-0.48915700126062506,0.2672480909042766,4.026280723918795
1.4249670340520058,2.695427364219118,14.249133372809904
-0.44685789677074395,0.8978396819896863,10.019812019781899
0.5211094309765637,-0.31974584204874307,-28.192684906359403
-0.7081943801830011,-0.557114597004205,-11.228612410453703
1.155530589628884,-0.6458328905850751,-1.5232093230759163
-0.2545304593445047,-2.066901899582242,0.5565354708309155
0.5189249241623829,0.3669680979623962,1.3787494291937399
-0.4929949114545433,0.02071408342287196,-6.750630208644234
-1.0865481528840086,-0.6928982670024281,-0.8856219986121784
-0.2309174972810981,0.8694001766984644,-10.15108689505118
1.098010038758162,-0.6104496082250214,12.861382529542338
-1.0178780503219558,-1.7709121349040247,-9.708001505006843
-1.529391355496218,-1.1181609589524386,-5.777680072662703
-0.3079877367482591,-0.07047705088012013,8.91728489748308
0.7807543560226766,0.29365777050808095,-5.625891584207707
-1.0558396385658135,1.8439566470007127,1.7654420757969203
-0.54388338136983,-0.42657080383788015,-9.055265601175291
0.18430173939835864,0.488540387462982,-0.368937207429153
-0.33067584348757756,0.9851679904432313,4.094552652345265
0.28720820216008086,0.5681603186557863,-15.29801767402114
1.1895281369043331,0.2622053859838585,-16.78562452744149
0.02120154785712008,-1.1683078561304467,-11.67330018546317
-0.0654096803390754,-0.4273509357793124,8.260155634540103
0.7661159035350954,2.131246487834625,5.470731992272474
-0.061635084622049585,0.1401541719441677,8.330185890439177
-0.9528971521266587,-0.07139352192301932,14.913897159044268
-1.0144630635201637,-1.2000771148687928,-4.016881890485335
-1.1152639630376215,0.21452712085289838,-7.274709324788167
1.9126006784907756,1.6894286718761466,-1.1751055148168439
-0.04526320313206409,-0.6319624765009827,2.418469808969995
0.5769097178061824,-0.9575590833417593,10.988868916768586
0.7178056951262264,-0.10347644097532795,1.3304985355814107
-0.9389989977388749,-0.5374937198952092,5.696497277120844
0.6287758071996502,-0.7007813354350887,-5.929545920976907
-0.5644934320615776,2.115465177199709,-15.928154943796791
-2.0878074622887244,0.7267873243347864,18.82159772756061
-0.21505013167504797,-1.4767440814600654,1.6079957367862625
-1.075028563934741,-0.12185212024437278,-3.587342124881809
-0.33797214936443226,0.8581994279389127,1.410189732831648
0.3432127321965482,-0.3622559877193491,22.665713285740928
2.2825396395477124,0.7459047874847915,-4.5866783653659295
-0.4957788482144945,-1.199818146060459,-4.3662875353328054
-0.16396283233959474,0.4554298609847236,-7.258412092266159
0.3716221612603649,-0.11489452796804797,-3.9234698187240586
0.1865215199860129,0.49738494439875086,-19.833695176662122
-0.15842922418844002,-0.1260660328527834,12.872281912066267
-1.082929557197095,-0.7260322718107799,0.25894711406744647
-0.9566255200649338,0.32681720009334897,-8.778690531307351
-0.18337673505653143,0.39217284428871707,11.194262610445438
-1.159806896276608,0.5787609930063825,-3.682070417595849
-0.6577683624489188,-1.43287273511097,14.786522766562715
-1.2514484063143279,-0.5681156311061009,-1.8041991728015525
1.1244828606924742,-0.2943232437104846,-0.425684076706929
-1.4978398055076185,-0.3518269779648862,3.10292864855672
1.9020172233005366,-0.4371325650560525,5.893946648926685
-0.5803830380547186,0.01767152112702768,-6.239403946435107
-1.0549156743499069,1.2860207567775086,-6.03300730924277
-1.1827572043148213,1.6479446334165904,2.1321587628988667
0.7794800543734979,1.0917086302169383,-19.039259847350085
1.0265979505650449,0.47416085312653256,-28.64217329210248
-0.8486660011006626,-3.326870107456545,-0.7237347671642609
0.3315396481068903,-0.7220667003612804,1.5029507075907778
-0.14959135264789844,0.4667920243948707,11.582457208672803
-0.24244060013170401,-0.9869604662956988,-1.06467079398996
0.1511971753169305,1.0499257326502303,11.412771630999725
0.7650694809624692,-0.7335198140979545,13.947663904827257
-1.9166305190091215,0.08754734320813405,1.2215280574368002
-2.2273412922974627,-0.5048424869909438,-6.141728768583077
0.20668989738150004,0.19578299356298853,-9.466734142319904
-0.07087635595823141,-1.5070402551035982,-1.7885573780549715
0.6847599689489094,-0.3753932031921457,-14.160295276551897
-1.707539050551093,-0.9231358979997109,2.362244364915694
-0.9865696649288421,-1.1648113258867563,8.046552950871584
1.5435363391035697,-1.7024456812640112,-5.975948002900147
-1.3102705289478154,0.9092829373790172,9.819263226872069
0.36343397187958704,-1.1821053658062814,-8.605127577915862
-0.7948724445629353,0.6414681291744372,0.6305943749427955
-0.4052862668192303,-0.21903807741536976,2.2550144960134553
-1.3777579314960953,0.37664711044013555,-19.44080949898541
1.186048675686366,-0.10291825549878102,-2.7039210020597237
-1.9038211429429313,-0.14002955219312177,9.278093552958007
-1.1981403783170779,-1.3526775220421998,11.697316181590429
-0.9100656426225537,2.5511381209399016,12.76049925749743
1.1764541926831962,0.9440898470276863,-7.0751120041828415
0.29921066962267073,0.8875887934002106,1.5239761757348576
0.6792671780240066,-2.311148322320079,-15.837542731733363
-0.017660679990449492,-0.7850461305244337,7.118095044948154
0.2360409229142486,-0.8346646751361354,0.18587498064811597
0.49403587093525686,0.07664890187437151,8.975791234216388
1.5462776458676437,-0.7947238303775587,-13.051782005924153
0.2468575084668076,0.5140290983076823,13.487037461670885
-1.4687757992872819,-0.012262028254905641,0.6662120511894519
1.1470999424119412,0.6816039715865458,-13.418711244177219
0.09555698451187418,1.0064932189227287,7.65784722510587
-1.107438726275637,-0.9420346118619211,21.82817943874972
-0.1762861412530986,-0.7334250664653087,2.895692508068227
-0.9827556665328718,-1.0352497093576072,2.7368303579202173
2.086682727497769,0.7085275332028773,-16.015699286702656
-0.3446236706818767,-0.2186178796445399,-2.1202032638637713
-2.002079233146756,-0.5557801447058143,9.964341046879849
0.3032344329087319,-1.3904871689052454,2.733072020966828
-0.8298748447104052,0.23601841131424253,-1.5500050256020812
1.2887694068618765,-0.14152337364602535,-7.087546199919933
0.13492546217094,-0.011855728176082367,19.293009859957674
-1.778600641324842,-0.47961425482758263,-5.481323649187915
-0.5007914895154542,-1.5620076111383816,-16.649385265720788
-1.0881615688012674,1.1298484109634628,2.2849881403002086
-0.7578555532194674,-0.11775856876308137,-3.141861105184894
-0.6437449001568133,0.1318332028441092,-4.063282458811452
-2.0087845274474123,-0.8595581736818898,-7.9367527393546204
0.19626289408165962,1.2092207508179615,-8.717060759317391
-0.8758963700149516,-0.9437258828246979,-11.436052073674865
-0.8936092090801043,-0.5876793462024393,10.270191040677874
0.7519023551703334,-1.0026165457117748,-10.116817715042547
1.8969322435522569,-1.222778908039116,-9.176593513931287
-0.6290791507985063,0.6459432047885942,1.9957271245575896
1.8120855271285323,-0.5829301056127938,6.956902623279685
-2.056265740737039,-1.1514476861125065,3.431808970573107
0.5627048871153756,-0.28426165391788677,-3.106419404444234
-0.5820707574542218,-0.41235523638592136,-6.717098954487838
-0.07400297487408615,-0.0872364470397206,0.6791137013179849
-0.9864963639746409,-0.6980669395636352,-4.8929317326523325
-0.594722498919069,0.11506624704569181,-2.464316089047989
-0.31481184271131357,-1.7690965446308715,9.169269560869047
-0.3469405317942982,-1.0290720846167267,-0.7821924273496885
0.41144351633837156,0.5879295951455561,8.431923207779912
2.3263909011211825,0.71545760498249,-5.95541109162994
-0.6340531276364555,-1.8926352335181236,-3.2686661780756032
-0.15440996235811427,0.2523082246772736,0.11644099315069893
-1.7492888038122811,-0.15730922736768396,3.374574422006986
-2.519579296368879,1.0249961361846132,-11.354775946071094
1.3911624274193815,-1.1642601866191942,-9.868106497534981
-1.329346442504521,0.2645227553666602,18.188903906609216
-0.7455964142526198,0.7258623263177081,2.776955382068908
0.021260849809426777,-1.4745636660271912,-5.440839327613041
0.9109175148647429,-0.7711032411311424,-16.411177954260562
0.3152760818398397,0.8205599751828531,-6.036441806884103
1.8662082052630138,-0.3378536925278026,10.15725722796625
-0.1824976232756789,0.7778651530672539,13.32233515205801
-1.8282663395139096,0.05570279183586543,-11.779917262100872
0.13895571726056527,-1.4781634902119645,0.2603512741749091
0.11945016466505277,-0.002111159926847774,6.4262354274121485
-0.8188992001165687,0.2810481518633767,7.1577583169809085
-0.33263926484744866,-0.6590164036983174,1.8083704524328612
-0.5863879554769582,0.9171239278462597,0.12296620201436784
1.7345163444050489,-1.413960547641004,4.133453450642514
-0.6127515576665696,-0.1565522624422006,-5.542335040312045
-1.3934420170010757,-0.42217814689731664,3.232381803313817
0.2794337565448723,-0.9115196178246695,7.363483999746306
-1.822231268440837,-1.5500360326200981,-3.391425525985818
0.4270174575554754,-2.120773336090958,13.156925175967924
0.4069877491120994,-1.321612041865104,9.798327808734504
-0.8443082406155314,-0.27888536777938505,-5.214947234730291
-0.5598201129278841,-0.6758485051730069,-4.923264190130846
-0.6005204054093214,-0.25266820671874984,2.2502069344504787
1.6148732370632584,-0.3284246210687022,3.9472668341577806
0.3949532203796535,-0.5623108097584534,4.673983991521469
-1.2038134694447238,0.11791358251374974,2.082135290463337
-1.2474724316113397,0.7386377969874374,-1.4314220192749052
-0.07754624962855335,-1.587295576479942,22.49754622760982
-0.013339751350870099,0.1532001161162045,19.220290082220224
-0.7683232495933241,-1.7336693218625328,5.179388610943664
0.2912340100006445,2.0830593102595256,5.544635588972743
-0.19733094812472654,-1.0191331306822646,6.857692546624696
1.0768296495301863,-0.484130341153043,11.51283721168734
0.4374102318607927,0.7653969495379638,4.175181253220235
-0.09319786632608736,0.31832073377970943,12.217686068985852
0.13563141605607154,0.8324431655559804,-18.330629537447997
-0.8827088215741824,1.3144749274102427,-6.709879812381992
0.8847441942013677,-0.39099832458393435,-6.617690111232074
0.38320446346006487,1.8697986136230553,-15.877601985114127
-0.41699414887532354,-0.7293826363055097,-4.020231019272754
0.11779654975533185,-0.3734208743036909,-5.942426700007686
-0.5366853088375119,0.7856587794645187,-9.16536165575519
2.4871845753316477,-2.4131383417363272,-10.630883829838877
-0.45136105435065094,-0.7127046039164141,5.320875268382116
0.5188361269114733,-0.2987258432131629,-8.781220547167074
0.364448005146325,0.7380170766446099,5.129400923526158
-0.7983487290498046,-0.7817992230365202,-8.614497816291014
0.00565779713141904,0.7690273959022607,1.1828977391570676
-0.32093470783238803,-1.1125890548672368,-13.727164011672237
0.2495135497342965,0.8974599734817972,-17.86611326576758
0.25630839157723,0.6873360549029548,3.976915007371127
0.7676250825051286,-0.5743125958378433,-0.7825159458963344
0.7830200873402383,-0.35120095485054464,22.49686847919833
-0.40706304681381245,-0.2582670818157813,6.189179310940575
-0.5248916671201976,-0.4496731483918322,4.6355970985093675
-0.5898086834155772,-0.6388247795057341,3.098540430295977
-0.8625310861266463,1.2823651538413017,-4.275948142709191
-1.742872904242518,0.3491576272822004,6.498818161761086
0.6036714606026271,0.3805488600210808,-3.572822056429485
-0.07961345202199653,-1.602314243335623,5.797223054639624
-0.2112726914290075,-0.09725292005031594,-5.46462295840062
-1.6577347444332275,1.0200116560844064,12.700647523182587
-1.5010400898075342,0.05788055045426294,1.3339514421301668
-2.515439456144192,-0.5867679005854531,-1.6988494499411197
-0.10296103126109951,-0.16201951065403583,5.104676091802776
0.669229029240306,0.7345189188944968,-4.285087906881052
0.5943091570409794,-0.23493024097000295,-17.391041535080504
-0.0781073373857635,-2.169850303806109,-1.5774103396497574
-1.07873948838559,-0.8261013573945828,9.267032823255498
-0.008981629456878432,0.07942432725440272,-7.110680659727037
0.0023593343235819918,-1.6161756018887317,8.778912282698064
0.7057525382505124,-0.06482199198548609,8.439050308133293
0.7658674588387286,0.39926632368609855,5.77179938155434
-0.26623673799618053,2.1468903668704207,-17.06390141347105
-0.03468536600121504,1.3865766703101874,27.50532363534241
0.6961937524370047,0.3207754132797408,14.61142002220364
0.4571885208182008,-1.8283553815619282,1.4571132874714419
-0.17070155111718974,0.22627238393305849,-7.77855176085776
-2.1686184989032724,-1.5077323778065799,-10.283945835288545
-0.6651801660841696,-1.10993297559804,-15.82107268071278
0.8387129855080627,1.0428050413732246,-3.290741889996625
0.14982795004340665,-0.8421046445027196,11.084780341739808
0.9531774002958466,0.6068399112654835,-12.644524491668008
-0.34524196498894705,0.13307492447485397,-1.8260099006067918
0.0802706183098041,0.8650573861560134,7.6275931553466725
0.7935245958607177,-0.24397998826896833,10.09725631612729
0.6878241589209073,-0.2093757072790705,3.0981287406100746
0.3916828643202379,1.4733436471202586,-7.453749745780413
1.088858465941407,0.643256277885669,19.343258316196202
1.3353117518313151,0.3144437342194759,5.951890307437392
1.390346010109009,-0.03154737290361876,5.760552817715023
-1.6516795997914293,0.5218069706284418,9.841506475086119
-0.4863185806843218,-0.14639464210000389,-6.896441559540504
-0.32856846999650646,0.5733429085084808,-11.072548492461662
-0.3646150027984322,-0.12474972426163422,-10.509602078919013
-1.6376143836466606,-1.7299502125675141,15.184968146298466
1.3011204225543935,-1.6893877595002986,4.625718776232037
-1.0013051531328936,-0.693947037170705,-13.474929696528086
0.09949926532119927,1.9713565866225151,-11.600210422889315
-2.404226052826724,1.3588220073071768,0.45991714828262703
-0.5070738022511005,-0.4124186611837809,-12.826995330437319
-0.25804942622103477,-0.8204986696390059,-1.8027916042554815
-0.9358689143269845,-0.5156217279751633,2.387743941462179
0.7354104614614677,-0.2375643932857574,2.493724347061449
2.3804844604314117,1.1943707904780796,10.522409359787785
-0.8755813300584485,-0.587757621210744,17.106953868259993
-0.8652099642166615,-1.5048339601193865,0.9628915069135123
1.7518181614711237,-0.5264659224499768,2.3641948574601503
0.562041137590148,-1.2270862227779027,16.17709936851757
-0.3160940278343948,1.488180592888767,3.9449548950989124
-1.2795568838505171,-0.16697383889268816,2.486103841172744
0.7326500134138723,0.07909309473257273,8.942290077230766
0.2131586779458501,-0.06567238193428915,1.9984644923062813
1.5525134336741606,-1.9604904161690953,-0.7368262760498545
-0.8709521134003226,0.22436715407900518,11.030192357102282
-0.17356138645275357,0.4722598008931188,-4.113014825270849
-0.3079353892608146,-0.42620013504966053,-1.8238766433347315
-0.21683126452622384,0.3393480843916682,2.49928169149979
1.057634570430107,-0.36322451814885326,9.901922234769284
0.8423693449991303,-0.1208382756290028,-14.964686962732829
-0.640418909626921,0.7818907330549651,13.747560995736068
-0.09232328944024648,-0.4188408718328557,9.344915671402633
-0.23081300811125374,0.4924855003539733,-10.274149502085539
0.889122317888442,0.07127987089431422,9.236627033967553
-0.1762460665250549,-0.009271484782550705,-5.540485322594345
-1.1179618506337168,-0.5166283932207258,12.370310135923017
-0.34530825548133437,-0.725013762237037,-0.08745695818142726
-0.04777713869099145,-0.006171960493082105,4.164412162777744
0.9172204776794756,1.1833866172278042,-12.936946949792086
1.2758269008188117,0.374756570469951,-0.32965329651509945
1.2907679618437096,1.1999086737299607,-3.641832500324822
0.36410861848181525,0.01995095562016491,6.99712016954739
-0.517934324153573,-1.5761475819611213,-5.575391815296707
0.5812862400493362,1.1804881350168075,5.1016683883639065
-0.19092456465529514,-0.05354525598450708,24.30563792410366
-0.6252535181118734,1.104275941043664,-0.2927943236678177
0.2892525357002619,0.7565580930299501,11.071475428704563
0.40029748684887834,0.8490184738110997,-4.115649484637185
0.8635321006557288,0.4563058707917697,8.669965030693273
-0.9048818800969718,-2.9537555493190912,-11.351610390077699
-1.673635985455855,0.8375028909877477,13.209911374726026
0.49918435754761986,0.2904071696787565,-4.3830276523598
-0.9713322060557459,0.7614484031257602,-7.757698714369299
0.9901526821366652,0.902256390799344,-7.24883707900328
-1.1083516669085596,0.33184393771248366,-5.734948985757881
-0.5900906004813742,0.6629511195583497,6.30331729139841
-1.818252456768103,-1.4456750703002956,2.4601363800680343
2.036649938694028,0.10853347423172223,9.687186665904887
-0.4708067671068985,0.7186772841208694,6.372434318338969
-0.0959694707052343,0.6600005135614802,-5.2970853463390934
-0.5401460132005208,-0.875052799301122,-2.672849959338595
-0.254511210981099,-1.8323584687689487,11.441040922786884
0.8136763946582407,-0.5997452328296794,16.275675330986065
0.08813105729843528,0.04651067274983724,12.288806103787921
-0.028935845636677237,0.2748664205233325,10.1392756363734
1.1726825605641622,1.6354516731942192,-8.570508114681482
-1.3704239829145712,1.2395638124694486,-20.373700963021683
1.1135297903180037,-0.739546350742582,12.920138149635305
1.5768901781404938,0.6313191638631964,-0.507573730610119
-1.4066995849136144,-0.4109089835232745,-9.044650381930522
0.2529459259222099,0.7932018472522254,-0.6304188383399101
-1.3054334269301247,-0.67177489086531,7.664422436195962
-2.129869204804334,1.2955975493181064,-1.98893541911912
-0.8671255046975083,-0.5528066779357411,-8.592605143676188
0.5053648958131307,-0.3583724771832253,-2.1528848909523832
0.7386518360931771,-0.9200805910869497,8.804182615280306
-0.38662578088771243,0.8166671297679959,8.22847636086612
-0.8845777032933492,0.06582241046574615,-22.292814850066076
-0.45730882841073334,0.4276410383578448,7.317303117852118
-0.7356405228435048,0.7451406218303778,0.44709489085394916
-0.6492051595618835,-0.8385124432042234,11.429657326284985
-2.428253457866956,1.6581526312507064,-21.559372436506816
-0.2571249692243189,0.7713477414802735,-1.4109317496396976
-0.13697829608834663,0.2341568736602126,-5.649212884338387
2.1624624121221494,0.0020270923314550673,-2.6044925911843975
0.6575512468949224,-0.25423341256580123,-10.931472420974782
-0.16026255883298413,-0.5284758960162087,-4.21022942932756
0.0530264827598894,0.922512320439406,-10.418455786198926
0.30835626159318,0.19557231544411002,5.570369353421652
-0.7222880550643944,-0.018225082394306383,30.898500040049477
-2.1035583425932294,-0.5529905128097972,0.9813114995750022
-0.7513748417424552,0.17244020204609486,-4.127902229743135
-0.24814333545105274,2.0412975203885506,35.76968309232483
0.0935717871281185,0.46375426826987254,0.18600742619314745
-0.7396070759525862,-1.9798752701229811,-2.3962861948079337
-0.9457517119913266,-2.2994714701581507,9.760894339125434
-0.28770370962772635,0.7138348560810323,-9.532690405152394
0.03006005585484988,-1.3699219200767077,-1.4955854722658275
0.5472618035108127,0.29000832207095006,-14.33287580828264
-0.2663178683874312,0.6242756806497425,6.014344104682569
0.41410374793434646,0.6959934052009418,-7.5231554384114405
-1.022988219179459,1.9860750793068584,-7.551028356321576
0.7895225604104245,-0.3949328303788099,-6.216759985433504
-0.08074795743806894,0.22903487374342296,10.100207277511903
-1.3871694133275627,-0.592453889930549,-4.327161093287717
-0.2766663633760728,-1.2899334156756572,-1.9747847304055464
0.0828224803114542,-0.7684698404211073,6.344091101365193
-1.087394796735686,1.4589994667328063,14.252463392966009
0.7020135249078566,1.4694790519468832,-23.988221653716177
-0.3561359306364889,-0.8039877698800182,9.127873337838928
0.4319889809259436,0.8144972376414036,10.492491954538657
-1.0178627290595672,-0.16368332023330737,11.179423468678348
0.28774717235612307,0.9054183652067983,6.010093192573934
0.7044508850090327,-0.8748579739212775,-8.196800660743756
-0.462865876368337,0.3251211053455814,4.53550279438563
-0.21445275025428703,0.15425813060943266,2.374418134329332
-0.592966710881484,-0.8619030767263027,2.6596161989711438
0.3116039835298371,-0.5459057400997855,-2.0762616256188364
0.010034370266821283,-0.4831599400528999,-2.7774321909963677
0.4788046089477663,0.031158203200666514,-22.60228710125803
-0.08030559203746405,1.6837438413400596,3.2775422138618246
-1.2922238111816327,1.614658950185133,9.152287635247982
-1.3334039877945194,1.624625627593815,12.09409503398346
-0.4698406767537679,0.6257234597404121,17.170339059271015
0.44020679628136666,0.9923589852495763,13.393396787141976
2.2426634713232216,-0.962698534819096,-2.493416720300847
0.8488214486643334,0.08616922327309526,7.856407765151169
-0.6332611907514374,1.1407220974865246,-3.757793012213271
-2.0458666795913363,0.38898373368105477,13.355167329458899
0.4944938657688551,-0.6269270273881418,-2.839608014713646
-0.0019529124613947206,0.5168956740966381,17.048806634221652
-1.231664490693115,0.2506243198320681,-11.179735147491808
0.8756889301774544,0.21742998437254055,4.807524231713711
-0.010775641843918179,-0.5036246822749436,3.9431662400282175
-0.43033555367957493,0.7073605400310748,-4.924943590052211
-1.9502770627300663,-0.12427414455758211,-5.442299529494558
0.9491217282740722,-0.7302430081456786,-5.479768947829577
0.050906988483733095,0.029359444585524485,13.195313651348608
-0.2660210641477899,0.6114363749740033,-3.8849314955686465
-0.9789306506980983,1.3911561566667785,-9.939738205573136
-0.38380984617756825,1.1869714620114489,-9.42804816386751
1.2218502608015014,-1.7209049874921136,9.476835705838281
0.5072266040303184,1.099974514715843,-4.07011365942348
1.9898352945052529,0.6126774913655503,23.615483569748484
1.048388658412122,0.5173757728114553,24.128637054169083
0.33276252312412447,1.433878293754361,6.333017963018253
0.8843589988951195,1.7340585443861891,-1.9559858773713168
0.14888618882722698,0.7148573383644334,13.978004181267023
-1.4626783456605599,-0.05614307498601653,-4.761298116497637
-0.6168444703349245,-0.4812960413967444,13.247107202517958
0.3213357957800812,0.28544143797998295,7.9399638463918345
-0.9464468643059093,0.46000889653499344,2.465865108111366
-0.5301394082656447,-0.6165868189113164,-4.993892071825777
-1.2592070153633834,1.8076529653282531,5.003575042865647
1.6775440640418995,1.6198066892834437,0.7625204303595611
-1.331161728361028,0.9532628819797685,4.054781608537643
-1.052874108968709,1.9939662968429945,-0.36238577755595824
-0.8989854910729287,0.9833202317009447,17.323869610894246
0.9611043126175778,-0.2730227457759754,-14.798732975841686
1.116515990242778,0.9904917239451755,-13.041317781626473
-0.5651193836365183,2.1147029857417134,6.699088617958521
0.5651217345119038,-0.14110774309021348,1.9721973090509661
-0.9033609101596184,-1.1828783954733642,-13.760260920958654
-0.00764231103606649,1.0643108841783024,6.077918185203374
2.6036996678523514,-1.6223442326445394,0.5208286555851004
0.9359161499586616,-0.9276791698587648,-27.56578737123819
-0.050866672635910916,0.4455391978697365,17.117704792365938
-1.3344122838221515,-0.3239234479319593,-3.433309986383622
-0.3080027315580259,1.804312096409802,-5.009521328612357
-1.3289151428067367,0.09639631454873349,-5.8563745173929584
-2.1929667027074733,0.7201440605907986,-16.3086551669393
0.5994656154289272,1.1957157068418152,-8.540844052876272
0.5762751140739184,0.1333293779443098,9.003624233353847
0.19392842527138224,0.5982170032268327,-7.498140381111295
0.9935055944790387,-1.7299805688177077,0.857503933675255
-1.6775653822905623,2.111304121485037,-20.16968758278226
1.3921301151001328,0.16701309823412558,2.7124469343567714
-1.088751677383309,-0.18809094066874477,-3.8221598502177856
0.37428972527958326,-0.5583869755155961,-5.341306813937862e-05
0.4514339549025637,0.27208987891322073,-2.2160957854990553
1.0743614124384175,-0.5377433879826418,-2.6016279933910225
1.9961107776075118,0.26322676471667633,-3.70121608190896
0.3454493700536566,-0.6035120407742821,11.754298418203922
-0.38280309959716463,-1.3932521825573492,12.196554552764436
-1.1133013122888222,-0.73513912826514,-3.0284748207172374
0.2580030246049355,-0.7956810808045762,4.290377561909848
-0.8484144574350586,0.40207927197532023,-8.110491827695792
-1.3584540451126368,0.14834230870626613,-8.939477743294693
-0.20284073751885984,-0.49502565494641587,-4.806103545297782
0.6711467630763592,0.3375147133185462,11.010788726478651
-0.3099831748776173,-0.6174507104886462,-28.248433378899097
-1.0533320111739566,-0.03437988246120591,-9.018130398900265
0.14164145333083517,-0.27914511253119834,3.6804292124677596
-1.2441039398488116,0.41770234068605044,4.60283328855385
-1.5183726265876742,-0.8721049422838726,-0.7330930974961869
1.4589709711560053,-0.14645494181192045,-9.995466269139659
0.24287429101830016,-0.030880325882399823,3.380528122967326
1.9802199546498271,-1.0915720433431668,8.37290327991695
-1.4746279564664293,0.05152758336580002,10.74795210315213
1.0369178206413683,-0.0429269175745559,3.5759715375092944
-0.17685588878250658,0.9207037064848604,-3.6097108563900178
2.6796442348500067,-1.1012114779934905,4.508235347222374
-0.21542415113880914,-1.453980807327012,10.24925309310267
-0.44445477140699097,-1.611942488438987,-0.2428334383363513
0.42382096062950586,0.2137219341700014,0.1689319676050621
0.18896099506741396,-0.5333421021093551,-13.809300306514775
-0.45913492833402875,-0.9887780554718384,13.17103339155433
0.9117478653157223,0.23639144685879962,0.1511752639932345
0.6901809236186843,0.85698222225438,-21.737373268444117
0.8856915029709866,1.8784717146719372,4.425928453511307
0.40041884763722146,1.2349819128945396,15.390734401735614
-0.7096541894024758,-0.6449557346942084,-25.135636095467028
-0.7002780873628642,1.4464504574011554,16.586635172602584
0.5929927932633268,-0.7453330803682456,-0.7043567356950284
-0.9390573666975149,0.4182664107878549,6.6682561712886335
1.6980445091810443,0.7710179933494973,-11.86843317245243
0.03249471822108281,-1.4688218912816893,3.797928514713256
-0.7941779636336767,0.132924055186507,-1.2391454039912173
1.0375649064595,0.0972856085442215,3.6622276253745145
-0.020193338568806982,2.178748510352689,-13.450478981486052
1.1971798354351166,-0.6037002254979723,-10.091971016912973
0.21178717776129832,0.7553370678349403,-16.532007969067166
1.7682974317451594,-0.17321285720249424,19.486394921350655
-0.3834851831001172,0.08409491004979613,6.663831873714706
-2.184177564251296,-0.9289489458270888,-3.5362437860375806
-1.5162047609820084,0.9800308385879186,-0.5820673811530818
-1.6338836313995553,1.2452371757767107,-10.855623482019677
0.5898943038706894,1.1874137490072498,-4.99010088469489
1.809144985113021,-1.6994917684116917,2.519182880411617
-0.1950379091272407,-1.8532888650882562,-18.888874575239928
-1.3343585791101273,-0.07348654733880948,-19.67313028288395
0.6829213706163153,1.127393918897941,-14.545671116295493
0.4537017730776355,0.8027636900891059,-10.06530109365719
-0.381164619520885,-0.25719258408727413,11.765416889282845
0.40794836267042056,-0.6884510708320924,-0.43027543727111656
0.006410206412873419,1.6756082966030161,-3.54041806578412
-1.1502176711378702,1.4186277524817053,8.88464060668818
0.6856177463289291,-0.7302003834918545,5.475146035085458
-0.5047683741190548,-0.0644526727811094,2.871702705914444
-0.9496888805197257,-0.09365429061659634,1.6963526457275
-0.2363233910209902,2.0752273297070216,2.544539312917613
1.5680050024093828,0.7062456161057029,-19.774841193670262
1.962369646323448,1.1232722951427618,12.433041704382326
1.4001368343572698,-0.8743640966633188,7.6824767467630934
-0.4950024225737853,0.27768096375701595,11.26589403179953
-1.0271690756181238,-0.10505030362654673,11.052117674489727
0.3439427240421271,0.15000076471736448,3.30016806560971
-0.16200335506054586,0.40879989427974933,7.463279637477624
0.13903252680171282,-0.06997780868904459,-7.604681776113899
-1.1304040903383152,-1.0542396337853575,13.513073238132812
-0.8862191251508665,1.162660406749339,11.462821601333955
-1.0758922738636993,-0.9380593536935061,2.228868286809419
0.7727037398279535,-0.7894150106843699,-3.8880444401148533
1.0623193136898084,-1.8356857252517118,3.07991619572006
-0.6826236006876765,0.35261273753819017,-19.09634440276823
0.5826138312017708,0.12562309900206534,-3.996214919866212
0.6415400191927079,-0.6574168963717284,28.475071283461023
-0.7399318698030295,-0.8679914774692424,-1.1608639342235076
0.009876068981459672,0.16842268898578225,-5.976558361591929
0.8134336738755577,-0.2952388237498023,0.25495394131004956
-1.0146626830717715,-1.025428668458555,-7.93546964363819
1.2462817323081579,0.45305307558105645,-14.484157253887284
-0.20617025190204297,0.9058446563649329,5.501194642997626
0.059367594634301774,0.36594114670423616,-17.92760933324773
-0.24434910997234527,0.8469122180423199,2.3298335849974983
-1.4817715470637092,0.24443183224330714,-2.309051460706286
0.33903748003994033,1.5462635232131172,-2.0549691327867294
-0.006827494162580527,0.9097835730208302,2.2634700626125746
-0.41013674172266634,-0.3307946222355768,-3.3756713614271696
-0.21994216650674767,1.101841029790573,16.736704998786838
0.41730922328659115,0.3659589834482303,0.09380252529427266
-0.14741708417411323,-0.5025018078206891,21.854221778558745
-0.5302427526239428,-0.6634187459539974,-2.3263388519884636
0.08043039884739027,-0.2828870722619014,-1.344670051202094
0.754160972742026,-1.9446057799801704,-4.179354237709242
0.03592528245511326,-0.7495105312683328,-18.82534533899302
-0.7961813948338929,-0.483122548998735,-17.992649954418056
0.8308785343568844,-1.5330802525033442,22.10423792692275
-0.2964085712030862,-0.8614432555807732,3.8316352077985885
0.5853600987059865,-0.9800781676502259,-3.698481812989487
-0.14596441094008608,-1.5293830922213292,19.79679705532866
-0.9442982757017118,-0.13476107586329708,11.352129370972488
-1.2751125538827608,0.2091608264966229,14.615694119793435
-0.9005003138910339,0.34465083200084634,-1.6581693645374096
-0.23414099912973063,1.1387610584163321,-2.290248750953007
-2.2526852817522354,-0.1725362519367236,12.43150039309591
0.38300857986707637,-0.47576219339040365,-11.13357878796422
1.0996086261478037,0.005114477161224931,-19.990304888364797
-0.2421620155632103,1.2475949323501623,5.739801776138781
-1.1095080008807998,1.5868022211799337,1.8036844849838243
-1.6669771278806946,-0.5542106208413963,-0.6939597936775257
0.22531780220998399,0.4027438375738607,-5.86405668334938
0.4119756892351083,-0.15117758104232368,8.15655114068279
0.05758565058515076,0.5753254857955392,-14.002619082657894
0.6963611506758581,-2.4311691905885793,-8.425304627496411
-0.6724204209366768,-0.4197910957914159,1.2259917910018736
-0.2525458822395315,-1.8663060144007295,-7.018630673832401
0.2757510901775246,-3.136547096243239,-0.6842559182628244
-0.22603156340188285,0.3796281851602373,-14.660558852752633
0.48720023996831563,-0.9189602855071262,-8.922348303464606
0.49558839534617405,1.2860283523332023,7.283178201980811
-0.27182112632644256,0.7882924011192128,-5.885695816155437
-0.9639652133297858,1.2621430409311818,13.486451912170317
-0.7243774094634233,0.8239942115373212,13.020722174634106
1.0955422592558364,-0.4593545672163019,-10.46153421688167
-1.204167968908614,0.37728075924910626,-9.531056662514747
0.05973095330143845,-1.507499527216914,2.7336627871694166
-0.9963251548243026,-1.2035636099681162,1.5993423507295952
2.307115280692177,0.5000229613119415,2.1773837666533553
-0.6345411501215028,1.7878982507005232,6.282640417030574
0.633710809010041,0.21861575836709907,-10.948061302321062
-0.968499758582551,-1.1249556216456256,16.85402988181529
3.1919012466454055,-0.07130824689512472,-3.1020200966800338
-1.3362268659192313,0.6064588760560982,-8.749061669325117
0.3564358186661671,1.0295740390685735,-9.780860456457479
-1.2530646968930834,0.15656317299570796,15.868839977151083
0.8192068337097612,1.7347626848437954,25.46576373339994
-1.2558122151766846,1.0887706332580314,7.850331807367544
-0.44351146249296436,0.4090766064869274,6.603819976288651
-1.5951343988587234,-0.3428127042633284,-0.5315877568486278
-0.3977057560857359,2.415256779380845,-11.083228280643791
0.0006286841107976548,-0.4279433403304046,-1.3017405695773832
1.7412245569739742,-0.2998337452003345,-20.471025105286607
-2.3030328195053826,-0.9071831801201446,-3.2328491482300397
0.5449118010407394,0.26150433606218704,22.253462414137587
0.04193095104817933,-1.7423846856814764,-9.01749711003121
-0.6089141957968919,0.550138016234395,24.140929646763144
-0.21219413822626743,-1.6252234989202576,-4.096540076196956
0.3906985174773879,0.6513936526541642,-14.128124811740248
-0.0375202982533049,-1.4581377486624534,5.133885906617767
-0.044051427746317956,-1.303005078988825,1.9515925264152842
-0.7806163907248542,-0.7922711865153536,11.240597386707286
-0.4010268944427705,0.1527102593317842,5.280288604919407
0.48398246361641245,-0.27030833581805286,-16.755477808856217
-0.9224436286691494,-1.0421587327956858,-2.8057598228087417
-0.5189746852082141,-0.2265238257290055,4.8894958574046194
0.07342828161515076,0.5346819563222973,-3.763340919999441
0.32596855295335136,-1.8451945642949812,16.436196140167407
0.38599807551198184,1.2372789719930113,17.7101675333462
-0.20198874437908923,-0.05916747073046554,-6.297218013260969
-2.0344512297829684,-2.699605524525161,-0.4227153915261838
0.7614850785178312,0.12177754156306429,-6.70363182417811
1.0014713300518612,-0.23478894631429678,12.409190434572766
1.1945101629366521,-0.49038237987212546,12.370763999607007
0.3394597716251989,-0.375520371928011,-19.34318245713146
0.843393007451568,-0.45590077255134837,-11.476419223057244
-0.2971747840684916,0.7357206968150062,9.421505449259392
-1.114311471294798,0.17322550974396186,-15.457659265970442
-0.17533077875855993,0.59872761022076,2.6828464651312984
-0.24969259137090222,-0.23563353294995612,4.546582228786441
0.9916602889207575,1.2858458392241119,-5.915486017238467
0.7929907179932503,-0.16711115939577773,19.48468257163923
-0.5226550900242121,0.586649397530048,10.52395170586636
-0.4290122633501381,-0.16885984933446088,-3.143530795268653
-0.052864739400423355,-0.14740664725461547,9.778945749983546
0.06299267544879088,0.8930303125722807,-4.205244846098186
1.4045297463835686,0.8452918159978792,7.057308620593181
-0.5015124848500528,0.06355604763569161,9.557526467966927
1.2722446257556403,0.13250090745822504,-0.04966334741138716
-1.4018531271543777,-0.3459924212349105,-18.11330159713826
-0.6932255980090163,0.6545867855963978,-21.00191692044622
1.6478751713610358,0.36613591414305585,5.011716015843254
0.37322698074265814,0.8619611480074375,2.6406327124391984
0.08193179303476482,0.224029150288727,5.137617770888909
0.5687255935861036,0.010605296373754125,-2.0578193732397874
-0.23448266812459279,0.8685132222180661,-19.93034744579364
0.03511023762508968,-0.12185276399868704,-15.523474724529905
0.1967852699696977,0.7562215649647351,-1.1810502632411626
