AccelerometerX,AccelerometerY,AccelerometerZ
0.92337262476499,9.03747112232629,9.81751540216351
-0.20651840298413,9.42043158872187,10.18016721288448
1.32368681816331,8.90063141067116,9.81882538855638
2.74777818319866,10.13968860893804,9.80627191151828
-0.07509650910335,8.49177476941139,9.54515853350675
0.15913296072008,8.95597322230345,9.93659531550629
3.28599800438446,9.85134266350995,9.63758839465228
2.06561721178839,9.01022155344155,9.95063846847825
-0.5582430365274,9.79853072633876,9.71835672285722
1.57145848674538,8.82008731884384,9.93295029691236
-0.0714995896937,8.89183305624359,9.7116543910211
-0.30949673804222,9.89456550995541,9.51308320978073
1.26079302302435,9.3679155315176,9.80918961314302
-3.05413006366889,9.41538685040403,10.07013370974186
-2.67145896507707,9.12585319283782,9.68354734664984
-0.46091453433059,9.97709999587692,9.74957483637434
-0.89261578121899,9.49027698895497,9.69141322316132
1.72219840745379,7.79372549647101,10.03400594850669
-0.68275058975252,8.89494023382554,9.66406871071615
-11.488172546016,0.14856008190703,8.71206149944222
3.91996768113838,9.97157107816623,10.27604409487888
0.92955737788468,9.36652729434556,9.5409250599889
1.47070664862174,7.92718208456578,9.4923070328806
-1.73010379913669,9.47786900744473,9.98287663722357
0.56655548163978,6.53228711741642,9.75112858727878
1.6781471945121,9.35052794122294,9.82068261965147
-0.83089716492458,7.46262021328899,9.4383665684934
2.27101820795368,8.3632732481377,9.84447633069035
0.26209107666862,9.05335589600446,9.75342226426178
0.96243448709379,9.86502028634867,10.03575404035987
0.67175100928552,7.88368827207276,10.09709071909964
4.90928195682799,9.55359495691844,9.38228792022232
1.96330166826307,9.27591167703284,9.6765918881043
-0.03859238880625,8.90350177966204,9.53271507051935
3.38865679796355,8.22227263725752,9.61124233378186
-0.25025206776575,4.83861669109282,10.04455093281414
2.38088050096246,8.94861144409444,9.4597310964534
-1.69630831066341,9.54879572130172,9.93150242829369
-0.37334223912975,9.09694560210987,9.80115409324627
2.91764435329701,9.38896949512624,9.65799276211828
4.16661187720231,9.5794271794218,9.97832005029594
2.82288380532837,9.46062568314975,10.17427519328069
2.60033202072058,9.25535135076142,9.63047435809153
2.0137407636625,9.17397567140207,10.08625423563294
0.08026149108989,9.78963464319467,9.70687274276416
1.6755724996448,7.43202659872866,9.83762728233061
1.65908085763291,9.53916995320722,9.88530451388995
4.4651785350293,9.14022645756683,10.10396530096344
3.65044463968163,9.58663461054204,9.49504636582254
-0.50833008457128,9.37588986049718,9.9507641148512
3.55881137602483,7.88070583077376,9.82058494546327
2.35169281426864,9.35157420473767,10.02849108703929
1.74668624690691,9.6805860083606,10.0455143093926
4.25510255571205,9.47272663231956,9.71346989798176
5.07862364618297,10.20561195167961,9.84065152934049
4.79628574208714,9.33035693836471,10.0404063912856
1.85255185311582,9.32106893227126,9.98033180201974
2.86761174881998,7.69339469348721,9.87155960423394
4.14699941331542,8.37228294888518,9.80417494730335
4.90859733996983,8.51180731773206,9.98658114809611
2.65652272396196,7.89541939437579,9.68571696401822
2.95483459281088,8.83957168680424,9.92213577658705
1.47807061114194,8.3157567762233,9.56783901232956
1.29483940787089,8.53754243104425,9.68160022778636
5.12899452857962,7.92713060396912,9.37003625839974
5.84513568377095,9.48547437851168,9.67275703957163
3.71408540137917,9.4930511871065,9.63871147890417
5.70720671725369,9.07590919289981,9.85304955899809
4.54395252167489,6.20454409147768,9.88701572874853
2.81278562015958,7.49409709197255,9.98802396464326
4.80680354578267,6.75635360533592,10.18539301708777
6.84949381526774,6.97484807597927,9.54694974663664
4.22069412778248,8.34127182073197,9.37722116053272
6.58775373627663,8.69631183009128,9.62421197490354
-0.57415484160416,8.8875290445465,9.72334336210753
5.73577701068042,9.5658387855058,10.2254133717166
4.35307948537439,7.82047946607915,9.49621529379395
3.74716628120173,6.29373144083037,9.59183093861261
4.93392316463611,8.68230436513086,9.63675315884875
0.82824279395395,8.79288868331939,9.72058667568211
4.55972899883651,8.86751664822938,9.70634616702616
5.16040378672197,7.62833514383059,9.82714079741427
6.98864134614583,8.76292817053993,10.04521243106262
4.15148433617233,9.26022080644937,9.67637195000636
3.29724127326238,8.79828379419048,10.02296190377528
3.80854508349332,9.51796051458734,9.47660855779175
6.67581365804456,8.87388983604083,10.09341915024782
5.79620622285904,9.00455451111499,9.51002012776236
4.01038416834299,8.08978405189229,9.69044792796636
5.61950111052058,5.3718221999978,9.60431530329733
5.24421686821695,6.95465462999326,9.49962860493048
6.50746022874077,7.5628916511726,10.22247884789788
4.06864023033384,6.90714992114492,9.75730444510512
4.86424691494199,9.4427657524682,10.02034156483983
4.81011309569866,5.35994108857665,9.90002516531883
2.7492635766787,8.55354481863988,9.69285366903743
6.0115451790206,6.55008331382494,9.96042998137272
5.63468247802008,9.34912531345495,9.81592559909212
5.66611831775496,9.65258132312548,9.71043567049097
5.30406063711004,6.64862737174386,9.75416361148991
-2.97744890479263,-0.70972692196403,12.43500002495972
4.63580591951372,8.99373528094046,9.43531258503242
5.55030864009752,9.56595564809876,9.99007565437173
4.69091193826339,5.61113926630719,9.87537604002628
5.87343853427268,8.89627924334738,9.87761499751255
6.20346390706893,3.84506103325122,9.85016369443588
8.39027527444415,8.38976849276792,9.95632089467251
5.95302205983462,6.29042162286331,10.01400077915548
6.37739747316406,8.1869078826015,9.68561625889784
6.22991974503636,5.76780373036466,9.8434308971451
2.82999567573139,7.92279466527811,10.08052960775288
6.33204447025257,7.67504014731792,9.41741316610476
6.50471938635247,6.94778958497508,9.9265310998519
9.27776829156775,8.4149982319586,9.46630427815569
6.17344995744896,5.48530203488783,10.10609485009855
6.67678119278542,8.16554567091412,9.823191643361
6.81064121623628,7.24112459411675,9.77877934700144
4.76061712349245,8.62367786323473,9.14470275645337
7.7892855107699,9.71392440237318,9.48399306491458
7.82260558070794,7.51376644447593,9.6081892471274
7.85310280462117,0.81667165648759,9.63363263469021
5.18587840628311,5.3727724012638,9.78020891195707
8.50105341725737,7.16158307510198,9.87325901780562
4.25741165377498,7.00406420227434,10.06088687263245
12.2406206819285,16.28433570344645,7.85623159974271
8.70728526929159,5.65133320148673,9.68106623640264
5.13706032307602,8.5099140165832,9.79208844748411
5.83301044658594,4.09615032120805,10.17503952150646
7.42009081707507,4.89882045897437,9.80781079298569
6.42418535333465,5.13381103631333,10.18809862406724
4.58017245882202,5.60424866293529,9.67294383717679
7.43807096778768,6.63052186287207,9.63512062687498
5.69193620344625,4.54970234296207,9.65535252313029
7.72865311099189,5.29468841534469,9.93639343823884
5.66043886359009,7.31794024169115,9.66674814736491
9.10119269869096,7.56464649368056,9.91600486402034
6.60989872041868,6.42173622569615,9.748478216199
6.45483802216411,2.30720460091843,9.69613276865068
8.07792449943823,8.41111647053825,9.7554152349363
5.92800583424364,8.63477990605995,10.09895748691669
7.83436287320982,6.03863998680131,9.88951999745474
8.83278621623632,5.6565468066611,9.92852829034955
5.23811822555119,5.59884344929559,9.87580271300552
7.79599571587537,5.02081583901944,10.13128130182548
7.69075388700285,6.2340419757338,9.51371127989156
8.20839736748374,1.81086440161252,9.50844208589287
5.91233967673232,8.42499348249504,10.03622551498408
5.65124818285279,7.2655285129257,9.50206278153038
8.70534522309088,5.72651211113957,9.62702073596236
7.75347183084809,8.57895409108208,9.99569252485178
7.6748316869644,6.0066845636326,9.68604392475509
7.25682622618151,0.95530437761521,10.03136084748518
6.84461283133024,5.00264732388619,9.69914439037013
8.00310758945208,5.01825175237356,9.62112872171269
8.50422584879513,8.02362986172554,9.86342036500283
7.09267227624698,6.50010480886462,9.86293086181244
9.23964819569432,6.1978071320198,9.90921751968079
9.16647427157541,5.86522564547505,9.74321731082273
6.69615467308797,2.23747410478492,10.07865025285421
8.54732175835408,3.52667453135367,10.07357984559587
6.4580687503243,7.28962909829335,9.50473775344849
9.44877908522974,4.61690946489197,9.80546260432224
8.86644324839188,3.46520998348887,10.12367268819459
7.27301132610421,1.75959160214491,9.43835752783124
9.06111298246174,0.43965791442782,10.04824581534301
9.48567202518434,6.695903347298,9.85512374784133
9.3808081964025,6.81470904686682,9.72029395253155
9.8803221211074,7.54595620673664,9.89257819349319
8.37659087202033,5.2106238657107,9.93442539963472
7.8036741643329,2.97577198386768,9.7673977118473
7.75889804594954,1.97001504742612,9.80482182215971
7.60058935280796,4.96292292808916,9.88972547216754
8.31555656643768,4.82761537343336,9.74860372713515
8.89154353094826,4.15311846676481,9.90609207829465
8.4283038897802,6.20937415862936,9.90519635299646
9.17382262406309,-1.31846994229164,9.76369437262242
8.14657729078307,7.32155742886957,10.09561800078143
9.08817051578595,3.56712774890263,9.94240199971046
8.05955360865677,-1.60363066940333,10.03995963944684
9.27371464349879,4.37350492642694,9.44544553307848
9.12236316461158,4.86243057661947,9.635115838187
7.86413183862477,5.00998477430646,9.97863823217012
8.11749205896674,4.43503710566868,9.93399582981252
8.68122919484838,-0.27960335739223,9.72505646229732
8.4099528741241,8.3662381422001,9.46264958787542
9.46771510988929,-0.69539233554318,9.69087508158448
8.95185310458705,7.07264605584567,9.90879611519768
9.02070020999212,4.35044722080649,9.44357679557156
8.17493201353812,4.75080256324897,10.04152655949822
7.45917926379893,2.15550625408634,10.09951923429548
8.66829961375324,7.25143411694104,9.69124275427163
8.88922067186904,2.17851988691561,9.83822237540858
9.27208550651233,-2.42963587074108,9.79989494510245
8.02773719563774,6.60031361987147,9.43375548244471
8.77189695638829,2.70504089671938,9.68785610197601
9.34616532397619,4.60783995468949,9.88742613181893
8.23103357514808,2.12438147756517,10.08589444295615
9.35178405659271,3.10470654449312,9.53602583466973
9.43220614233271,4.51364218772688,9.53815021644539
8.49824316691857,1.54746485714707,9.98267722292038
9.35423531034352,-2.18214457104864,9.89713592075276
9.51112552712332,3.30368646057866,9.61915733825012
9.55789429034418,0.54434174975024,9.69992500081906
9.8057005884151,6.45725248980428,9.6977761787352
8.26088903731445,4.72857947557091,9.73536555085995
8.54466187205183,1.248422768674,9.58981522851346
9.29707898848333,-1.47174176671525,9.72457354379677
9.3708803975692,1.63043943982866,9.2318765337953
9.00245678291694,3.38657679889884,9.64325678889907
8.937704741946,2.30529560795175,9.57818917101401
9.05980911572848,5.87729259670711,9.66843883625374
9.28957065931002,0.42800792841942,9.6150756150162
9.14522207986068,-0.23553020948764,9.96345857090181
9.74280582527717,3.6275449729772,9.72774060132714
8.99771029591981,3.53604274902489,9.8051863692886
9.89196891894603,1.30607158353868,9.87230084347564
8.86448008678205,3.36916980644843,9.93826411157729
9.11574038254945,2.16799763298306,9.69427463256737
8.64451375719883,-3.95373230437282,10.02721924174428
9.97109349352021,2.63442034995267,9.68503974664199
8.9635132087083,2.57990790484316,9.5864026309942
8.28506762756331,3.54228222535498,10.06709648075023
9.66857102288197,-0.12880949395877,9.86467583928751
8.75173665131482,2.05039413124335,10.03695797799221
9.13378209711019,3.37082149671018,9.63070211565726
9.6119769359943,-2.2864815812081,9.81545252892144
9.46928232943118,-2.70734987366315,10.0928775858739
8.81760775915979,3.23133073163572,9.89529579380947
9.41366577712933,6.31616488194567,9.93646251633607
10.37310660328351,-1.50202760355814,9.81632188518043
9.14443490237046,3.1882424103979,9.88014198857698
9.30869245336894,-0.93477038730825,9.82186411079787
9.57739311453206,5.85872293544017,9.82154270899485
9.84548588524798,-1.54907368594664,9.8694859324616
9.17189541613321,4.21105208945126,9.56586679633329
10.14217311140159,-1.37110663733683,9.50119468297721
8.98449905736826,0.76523859919643,10.16816459997064
9.36871808735376,3.08573663235841,9.8458308868045
9.73057197002686,1.98092658085325,10.14303693092694
9.87121537389518,-1.26232876708244,9.81365221186407
9.34945191860833,0.498342739846,9.47498111186029
9.19799291650567,-1.28959378649893,9.92382590767809
9.51421185261948,-4.64326956590931,9.77653599984501
9.05436114413487,5.0046520341316,9.6039668960896
9.09023454223647,-4.25759824329175,9.93472156026733
9.39321797732135,-0.14997138143295,9.93246118801103
9.66615220146306,2.70458860707621,9.89669447184861
9.45029569245721,3.74147776239509,10.08729447769176
9.27795160499883,0.52389975201587,9.84976268057528
9.02803082283556,-2.52941859074582,9.8975036896893
9.48603485468633,0.49094385159879,9.92255821079627
9.41138380404322,-4.32655170764216,9.96190156048134
8.04685146541621,4.04936946558156,9.80530902696988
9.67210203614024,-0.24935249945214,9.89338374416978
9.53016344111685,3.22794606853019,10.08806662427177
8.93809829426272,-1.32312099022053,9.9057910622714
9.97420608614776,-2.78787446457406,9.66243710167418
9.76532198913057,0.87269687940252,10.01031904390529
9.41045486117354,6.82997582613421,9.78489914751367
9.21941618154064,-1.28323937222085,9.52472021651012
9.73878627887062,-1.72170767314901,9.78655570889688
9.64477837872027,-1.99692550511009,9.94444450037145
8.08873418774467,-3.72790777061276,10.07739528525354
9.22954201501994,2.22810394591827,9.91711431228781
9.41835760826032,-2.73326010233928,9.78061932342947
9.01578954087817,-4.62565334143648,10.1578357961486
8.84704982140388,3.88094442126302,9.84026421213732
9.07017033025674,-1.69362434955718,9.6301016590172
9.66207411253717,0.22992045586619,9.42352013680559
-3.1598912731949,-7.40415700871848,19.50506046193028
9.04322365160444,-2.19007875858453,9.7568063533287
9.56921981405995,0.26324112105508,9.71161717388104
8.60913967180793,0.67924079144659,9.39738905251203
9.60650048117432,-1.4612053258849,9.74362169098226
9.80671277906668,1.3973006282917,9.65102175070122
9.27212086238777,1.59181418389133,9.67322898382633
10.17857805588606,-3.40895196002545,9.53813313546465
9.71916225693062,1.61018939416978,9.53967057261812
9.5070943539131,-3.52715338231824,9.86410628659584
9.30819818129414,-3.32967006799162,9.76510509139166
9.41155162385885,2.92417574290761,10.09386990238604
9.21164760668128,0.23305974533914,9.41219837536012
8.27379927568552,-4.95688962213121,10.2708001173203
9.77511126812643,0.94710974772938,9.95694502837668
7.2273380557546,-0.66751223564758,9.85559338847749
9.15054216762405,-3.57914195322035,9.90446086832373
9.05680307041718,-4.28553494220415,9.7250730043546
9.12709832191991,-1.58189408140237,9.81380393832942
8.71297557902661,-0.63705215538173,9.91758310051502
8.7407904861525,-5.79494878729944,9.82327146226214
12.34320416636466,-0.78645876872432,-0.12772250124647
10.1692087469656,-4.37991832434236,9.56792370621686
9.63022776913759,-2.82243675860812,9.89034781289406
8.8047141566924,-0.37297783422255,9.81056662318123
9.1072491922934,-0.12348107084757,10.2008488094852
9.42266963503112,-3.86938190950775,9.45181548295615
8.68955031621087,-4.33453163449035,9.45399605590378
9.40428234796397,-20.15594242468177,11.05687767062024
8.69835076843414,-4.4425583286903,9.58899099950946
8.92792336293326,1.16117545621302,9.68659647270664
9.25588243292719,-5.41482045136024,9.71381972021418
9.49896236780258,-0.09020502240422,9.47917874409848
8.62698472013866,-2.04920766866218,9.66703897446521
8.27671550985519,-3.75517664081138,9.93182210619909
9.25095498592205,-8.10863968619645,9.70923599679809
8.6920781756236,-9.79793296365463,9.78088402527766
7.85552854734349,-5.24249065926285,9.65091218464358
9.24511555270996,-2.63127821263675,10.09211541442167
8.91638642269656,-4.85543508150304,9.78035236781467
8.67241405552216,-5.81128315242438,9.50121499016999
9.22844205130938,-2.4431704329281,10.07414444118672
7.96100838978413,-7.69141110560194,9.87902435135601
8.56622652068204,-4.4510443727378,9.96707031977399
8.32603183234759,-5.04970715499216,9.87098299937342
7.74693895528592,-5.66088867949481,9.69789296986097
8.45615913007889,-4.79636869130152,9.8812964813468
7.77253751593816,-6.23598918104547,9.81248077312917
8.65513395911914,-2.2141557727361,9.96659536328081
8.23854138015418,-2.62660640439906,10.074265019426
8.46102548604882,-1.15323660745852,9.75474647381765
8.51778104655905,-5.19498975715126,9.73516695068124
8.18708076941585,-5.98060135444073,9.6937152154516
9.07327433523831,-5.03642021358416,9.87148502166848
6.22205583477188,-7.92336612533216,9.71562000484026
9.24614625403508,-4.14134341768191,9.49144811089931
8.72009559864569,-6.28757627060995,9.83269481131043
6.6956834665522,-1.44967813994722,9.90934215359858
7.44723561905946,-3.34052496417981,9.79189756497607
7.63046737593443,-6.01763464893762,10.18432113574981
8.0569301851105,-6.93781770016016,9.43027897423363
8.54096075435973,-3.80649806118996,10.11971740531266
9.30062066036044,-4.2455220221685,9.43641138194489
8.37656131120726,-0.81387404406373,9.78175093318896
9.19204528442893,-3.8875814683343,9.93196498459596
7.20281561586661,-6.91163322575768,9.91151696245524
8.52131306053153,-5.99179979134609,9.83741230460891
8.69921329793839,-5.86915162452982,9.35909809327629
8.33920175617236,-4.87027658818793,9.8324669983124
7.59654469406354,-5.30162556549097,9.39792779574652
8.9742464607801,-3.34326199060005,9.58586910644076
8.94148875684628,-6.73547393040862,10.03056189874105
7.8020175053955,-6.27772505234346,9.97024237737198
7.78892650263518,-6.28167154317143,10.04172146596239
8.88921557696526,-4.22257009696476,10.18217306778169
8.78048395841201,0.22023986678277,9.58406020861941
7.15175033624835,-8.03734570003609,10.02886710559827
8.50012026383737,-4.37044701603405,9.87723025358208
9.3239973998281,-3.43762700209209,9.37913840767683
8.17940460769748,-7.40145866279778,9.95616880258975
7.83293626805796,-4.49981697851187,9.64921423397437
7.05730118379708,-7.56315471342721,9.67533458551378
5.24783273862963,-7.0624762295537,9.82897138852719
6.53663854293834,-7.24311567323149,9.81880540696982
8.06997115057304,-2.27128466963179,9.68424693187711
7.44074435176706,-7.80244810109481,9.98750960746195
7.70491308158386,-6.5969451137941,9.85605892723512
7.75460012133008,-5.11413792837162,9.91380501122052
7.75814542036359,-5.98866092513881,9.81987975102343
6.89216487423933,-1.42882820134363,9.92075050271616
8.14926527598052,-6.65849526899125,9.87153557399704
6.7723309479008,-3.56979150204864,9.87784526043709
5.19169550124015,-2.68899833346277,9.97143927436416
7.37246778816909,-2.09075562115508,9.79723601200955
6.5635778480875,-7.75299148449934,10.16031021059445
6.53255869796222,-4.66988972149192,9.61756017762077
7.51367765913126,-9.45791779819198,9.98249370152145
6.71741599908813,-5.13356456796718,10.21261526166914
6.64670946905026,-2.0736967491336,9.88586468154941
19.50965879357259,10.22313925059903,10.59530768757098
7.54014322506322,-8.92690548524732,9.92277479116317
6.91344128926307,-6.15326005104669,9.7497617020849
6.67044017698314,-5.33277435339366,9.77926523237016
4.53025088328029,-7.52849076241934,9.75861510083129
5.06705811120505,-8.35433799768698,9.66151551044536
3.66134152945074,-8.20583783306926,10.09675563691301
7.62096691219591,-8.88667547406448,9.86138684436155
5.12482752591993,-6.37772416240493,9.54501246819995
6.59539621974152,-3.7011125946909,9.84904245473498
3.10617316604082,-6.22502825854866,9.9388189299479
7.96962589197086,-7.31849194350968,9.34724067570983
7.92855761125138,-5.27648290469766,9.78218186728322
7.08067305943765,-4.83082408821421,9.57059573474046
9.31497737559913,-7.69739909107776,9.79492820139484
6.84297417768543,-7.34266268625954,9.84007798227769
7.6623424051273,-7.49855968083216,9.59326104640091
6.16041782542762,-5.29122887742211,9.95450690785172
5.86334658647093,-6.48759186170042,9.56255815548673
3.22538197631736,-5.53119458425374,9.13042023166554
4.24050691305161,-9.08976414946144,9.89892072561208
6.90852153445179,-9.05533330716858,9.62280510756536
7.40723721237867,-3.00828389430532,9.74748109295983
4.82026097138517,-5.44730022599926,9.84538680195439
8.02282767972247,-4.12395641053161,9.63505195404783
2.8184215805139,-6.10305655879975,9.64603203735873
2.48502113126298,5.6162928950629,13.18735393651035
6.70816318139419,-4.27911372454414,9.62072984679367
7.76881763690006,-6.09446739199278,9.4805875042603
3.45382546151859,-6.03387255170661,9.65989194910382
5.72621043922828,-8.69934301585875,10.13630956451158
3.44843276946576,-7.94893178335813,10.05877419266484
7.41987675160198,-6.31803152469624,9.86083918173551
6.43420263070127,-8.42166212910821,9.8124788820188
5.65876202622392,-6.79270596442899,9.69198415002659
5.35345707224232,-7.6429235943806,9.74793139930908
6.33826807158303,-9.58494074554706,9.81139235454776
4.35807481261257,-8.69840518481708,9.66973953296479
6.69284623001038,-5.25127551533646,9.90380552356752
5.73893881734551,-9.27859291383598,9.74724105119046
5.27864784531814,-9.09707487361437,10.21241377978552
4.45325776506235,-6.29471061195539,10.12733459435509
4.06708233968192,-8.95135688791691,9.78467626123614
6.80722990374614,-9.48801703552621,9.77223970324101
7.56151705039539,-6.49042197770962,9.5317932503985
3.06731037181006,-6.4353374776545,9.56665224163118
4.05950497971033,-9.49188473278869,9.7956484760141
6.38320207360296,-8.45552543661233,10.06659049838044
2.02807165708432,-8.79243401865348,9.8994334959233
4.47580399604356,-8.79077030674803,9.56876531142431
2.4512550068454,-8.67184320037012,9.83655150453372
4.5734383762495,-5.99195682226548,9.3293037952267
0.85474287336239,-9.16369463923382,9.85213472956708
1.64869687322062,-9.42147069349891,9.4785853954278
5.00040979401876,-8.30384343060458,10.14543507865038
2.55731194787235,-8.44884032609896,9.80002220842485
3.20590126313243,-5.69977617457104,9.54173749089029
1.86837371128863,-9.32019453574888,9.71070982635581
6.23870486604695,-9.23425800082211,9.81474816376272
-10.23613149540014,-10.0858403011095,4.42128262739482
2.16793258302667,-9.88684830481383,9.74538945099969
6.85266820743098,-8.48059335348051,9.37873110970276
6.10928040066205,-9.1818635746049,9.38779400893555
7.27815071679688,-7.44378523684432,9.64266426766365
4.14559849133104,-8.98984615056435,9.7530929220441
2.36342850199947,-8.50176012078056,9.43069288214775
1.15545554384227,-9.40494825180604,9.56583739163261
3.37004515384147,-8.51479042415043,9.95835767057732
0.87861938140789,-8.76532570078358,10.02702153287573
6.4093144493318,-8.93659305018006,9.71497619991153
6.48800744985858,-7.93468155770922,9.64552958690077
3.83805074792524,-6.41956478368655,9.66469205710368
2.95082958313856,-9.79611242994041,9.65168742000687
3.62274999571186,-9.54383256256258,9.95915352086232
6.55010885418352,-7.22531273935411,10.0761148960811
3.50319878678693,-9.86687515670729,9.73544642745914
5.77898191686447,-8.48831848558365,9.71431554168556
1.76853811185898,-8.91127019649446,9.67730489643899
2.24440198946117,-9.46364937332437,9.67224630658713
4.82143097579985,-8.34987363348198,9.9490218492561
4.03278488251436,-8.1023805902622,9.79096860144324
4.87362182670719,-8.11025514658561,9.69993611091454
3.26571848890509,-7.87056979491063,9.83148441017415
0.81338136782476,-7.80973322021192,9.77764973689788
4.83942221599475,-8.99437257943074,9.91840927580026
1.91628033854708,-8.34888250425006,9.93786624237013
3.81115024653779,-8.49636757174763,10.11418924574798
3.94415854188138,-10.31189207484272,9.61650825364224
2.96709497564044,-9.10449139218644,9.62980945335267
4.44642447661128,-9.11255664076287,9.25839635575597
3.67198491270353,-9.45791553316136,9.54871918421439
4.69354698690148,-8.80833237302018,9.84339643860947
-1.47104063971984,-9.84220228479602,10.05207587607714
1.88689027588891,-9.91222044379352,9.91644603676437
3.31747266364878,-9.88555555651878,9.86324281947076
1.71956996860725,-8.38383670067459,9.49201720674168
2.17506099301221,-9.51148170811387,9.79662312325702
2.40684692769248,-9.44890590761529,9.61327763996931
1.15625855630678,-8.60471989730184,9.94059811553572
0.64275990974264,-9.28547214461671,9.6386375024307
2.73038050956887,-9.38823600205818,9.87582598237908
3.04216713049574,-9.2253342588789,10.10601817762208
2.30955625388844,-9.55109548005676,9.8207409145373
5.63767396078502,-8.23210656624635,10.09008586519028
4.4467948374559,-8.73691074935139,9.86365468425366
-1.08552366988738,-7.85801724538369,9.870104624344
-1.67428813640379,-9.30664988895568,9.69716933879072
2.16686921895081,-9.03493959287218,9.99532765356774
0.40279948891776,-9.69456185484835,9.75480062676962
0.43190369923325,-8.57206959898737,9.73059174336306
-4.41492595554229,-8.47456207279104,9.4705464131454
-1.01518941815707,-9.90201264610824,9.96724665873413
1.35662125718075,-8.94039565805562,9.75940131142972
2.09500213757504,-9.61294011153711,11.70769562984183
4.23327556330406,-8.46439672011979,9.6531080993793
0.38919845148308,-9.1257930055771,9.67831104638076
2.32262736404,-9.11428999551224,9.83068098715938
3.70590924620321,-9.58429407368766,9.82851896613035
1.91743750712729,-10.3446209745575,9.61969268385439
2.54019533163394,-9.57850012002333,9.57012253608176
-2.34564774390806,-9.53620134126128,10.023816659759
-0.85558521182118,-7.07012617708187,9.82323872359829
0.64760233129596,-9.3715900558927,9.77756018856849
-2.29468396884776,-9.27538283939058,9.68938173774294
0.21223729202208,-9.47142893546348,9.85823194556404
2.04112915609526,-8.65887590958295,9.71645375325596
-2.68862051667034,-9.10434397830341,9.90060421789257
-0.79217961127064,-9.94696666745042,10.13996018865968
2.39030592371141,-9.93668055752102,9.63864700495294
0.39779380933772,-9.43989900187958,10.13290575583037
1.9151926679506,-9.40601143097657,9.7785593391138
2.45518058959588,-9.46113132192759,9.48693029461671
-2.04186536393648,-9.8242884779462,9.46867940165438
-3.27809253022806,-8.97351179871402,9.6528815823874
2.36440162233374,-9.33055341991278,9.36963606307768
-1.1787647405773,-9.52613647695488,9.66656321497764
1.22539382413851,-8.85239534930873,9.46050897979224
0.24709355508851,-8.9085562206541,9.79957297250499
0.92931772996799,-5.61844053178167,9.89862235749414
1.3361009053915,-8.79746084011645,9.76223810060454
-0.36159408076316,-9.04829098185507,10.10721445395238
0.88975874477719,-8.91786235296086,9.98695324712058
-0.89174937992662,-10.19445918455306,9.9112775863574
-0.70481047382171,-9.24052203131065,9.96565139701318
-0.13106458663352,-9.72843214938035,9.88920603885945
0.86655048408449,-8.9979475044333,9.70598845250371
0.34689969768666,-9.91072367217944,9.80456966550728
-2.34541296721456,-9.52331910730391,9.5929704508112
-2.31234096317904,-9.20740405165156,9.39791342408831
0.36734523366662,-8.2687370789014,9.94720180648662
-1.23047509120746,-9.86331195775676,10.02537169636612
-2.77713700826574,-8.76742606688224,9.43648280079142
2.08802770404287,-9.5959324807806,9.7253893947303
-2.39824839553481,-4.62772657962325,10.10989702597772
0.21703454635475,-8.86042203551236,9.82053520116328
-2.37669229933927,-10.00470897511728,10.29022530690212
-0.08070821564742,-8.77215285312954,9.95597677105762
2.02850676490485,-8.78736337941286,9.89287018067925
1.54355988934154,-9.30749534906756,9.77936275437281
-1.81314294175903,-9.72772511975582,9.774515992324
-2.34876566197351,-6.42786822101127,9.68329837497174
-0.04460830030391,-9.16838501282485,9.58302084676167
-3.10067007772229,-9.43799036132812,9.65381301065679
1.0449322879947,-10.18633139794954,9.96473681779788
-1.54634411390843,-8.97251148361846,9.79818454838386
0.13845080144353,-9.28433762914713,9.74152089426116
-0.81736939195575,-10.02857790375418,9.65117278670917
-2.22440845238126,-10.41491446984101,9.53597965511294
-0.51583065373085,-8.5428472768224,9.8402393312736
-1.68531134507033,-7.927529406865,9.97494957945899
-3.84192774320295,-9.42486187367963,9.82394538457729
-0.85383397226746,-9.02864612505981,9.82652785702851
-4.05336753393632,-9.99590030527619,9.42054123902057
-0.17271825467569,-10.15356935380439,9.99460235388063
-3.73971760026818,-9.58576833026985,9.5204644712244
-4.81594903179296,-8.89256955577118,9.35669606340531
2.33277927422854,-5.51450343096958,9.67352627295407
-1.26678404383873,-8.92510237318208,9.77701373026825
-3.91716585908116,-9.67440933559668,9.7463173508365
-2.33162232437997,-10.17400426442608,9.78324092258746
-3.60574366985732,-7.50930660331443,9.76995234606807
-1.81249886369178,-6.07352364861158,9.84122055571179
-3.19670800163027,-9.24887319046024,10.0276832241448
-2.8856748046274,-9.01708033252991,9.87039287445896
-4.81508327868015,-6.16374243285862,10.02748995979153
-3.48477749178026,-9.20973213047665,9.73936758397096
-4.01869554066749,-8.95027237171449,9.5700219537272
-2.4560006764173,-8.3736449419424,9.7501259723181
-2.44483386787837,-8.73333980711715,9.78269887336666
-2.59141462032019,-9.26513899865126,10.01264801948719
-4.0987270265158,-8.5141895491392,9.77498945492832
-2.8148537501816,-7.44224858776012,9.86331729021558
-4.09833591820142,-9.50396479663414,9.70266923470072
-6.62280350118269,-8.4836861549778,10.17902210662004
-4.75643565378444,-8.77497274185029,9.68292489356263
-3.44337219507348,-8.60456144125829,9.86718597241683
-5.88400180728115,-9.62582846197696,9.88130842340791
-3.14873314679373,-9.2388958798825,9.51388615530743
0.02633623046562,-9.59995252553597,9.90171567847712
-2.13390965179352,-7.98609105597639,9.51405536844786
-0.50301990071357,-7.44549696930572,9.91672944822793
-3.54330598335014,-9.10903367353298,10.01719756311889
-4.28803353491961,-8.87819305659436,9.85327189546424
-6.37393910659439,-9.71033227223694,9.50109787051062
-4.94182258009254,-9.04457302795867,9.75860607396746
-3.74047232537943,-8.9517480055871,9.65779739953955
-5.91363653588366,-3.00195984636355,9.59150151206619
-0.49040353558971,-9.90899929799519,9.81438225138801
-4.60726704719444,-5.82524305266245,9.43691792141343
-5.92849864499731,-6.66688155042674,10.21686138038606
-1.54603483746633,-7.60889917329367,9.70843997957652
-6.29954528102405,-4.73506946755857,9.87366571122038
-5.25296920227452,-8.30936506054998,9.8292725961398
-4.32891351544219,-8.25394397027912,9.58969368140045
-5.4997090329234,-9.03964093714606,9.49451040800918
-7.92472777126849,-5.90738402555609,9.91938931401234
-5.00887529386417,-6.38033834064542,9.72364884144187
-5.26875239587426,-8.7060346654365,9.83579838997974
-4.16481089463162,-9.32965949736126,10.11784178362977
-3.59367970909636,-8.28070788635662,10.03825293020774
-6.15454239628586,-9.576944637914,10.09687999014594
-3.6913378866153,-8.09296003467006,9.76324790801164
-4.96896808082451,-5.8947257696935,9.61144659914104
-3.90409501882718,-9.09600939447958,9.69356773430974
-6.1448404096553,-8.66486329212377,9.8077221668369
-6.23084089091348,-7.54601836663374,9.37426999693414
-6.18962266877312,-6.83046095182837,9.81510052433633
-4.35888932518882,-10.00583672120616,9.59289377722463
-5.18747415058121,-8.39066598432132,9.85546134615957
-4.0611523934579,-7.8911714411845,10.0073705312581
-9.14735435904363,-15.6655318934499,10.01752534910506
-5.85505600756999,-8.51112143942477,9.82490681465801
-7.02600223778482,-9.23704237514533,9.80460923749788
-4.45022048186499,-6.10106797582486,10.13549811100648
-6.62841371340907,-9.08105017642558,9.9161838715141
-7.37436947215254,-9.02539024894629,9.86357566126932
-6.10918128007115,-8.71648589919019,9.74297238099328
-8.21050807537765,-7.7866490740626,9.61659093063801
-4.58622820096949,-8.17322898540693,9.71323269670894
-4.0275065434302,-9.93640071124705,10.0947480821103
-3.36385860584232,-5.28066098388183,9.77190269946378
-7.99592390331252,-4.68164599425305,9.90583241372728
-7.0088823847453,-5.97550073572796,9.75980851579442
-6.05630482984197,-9.03405501904418,9.32883070115075
-6.86276413625929,-7.58155973905607,10.10684737413868
-4.36553971455525,-7.37104395839186,9.73930608409241
-8.98751699854558,-6.1399076128945,9.81035663010968
-7.17795944915919,-5.82234908918192,9.63824480382404
-6.59998163042456,-8.16990304093445,9.98697207881983
-7.25190854376555,-7.11121817246872,9.06422945067714
-7.16861053045794,-6.60701255846018,9.83032315916883
-7.00974594470025,-3.65523644189144,9.97871456640325
-5.67611482049416,-5.26694172352616,9.46714023723239
-6.93781267408524,-5.49598283349114,9.99791769940126
-8.79373359209306,-6.28724276844592,9.53570460904943
-8.2009456665869,-3.49882245335072,9.68911132149842
-9.17325486469891,-6.34864256634864,9.54550675525353
-6.18584624291077,-7.99584574296519,9.81210250033151
-5.30227829637209,-3.04529684202288,9.66356514497541
-6.88683822824172,-5.02443114065129,9.86242522240172
-7.02379199011493,-7.11025567574677,9.73600330965303
-8.82446442593816,-7.38486831991508,9.90795711011995
-4.3429723545147,-5.98005458893379,9.60120563599104
-8.15404612474381,-5.30379569324892,9.9698986918415
-6.56699999471854,-6.01919284146071,9.94361211773678
-7.31606660653472,-5.822548835575,10.01995455718655
-5.63217124852278,-2.30997033096893,9.80301046197874
-4.79019104989009,-3.73159822075067,9.22422679922958
-8.11401560372526,-5.71512840162192,9.79256009932349
2.43076610278883,0.85522248288928,6.55183943935333
-5.90227314260935,-8.10973100229821,9.18977920188252
-5.30320834504441,-5.45435511818768,9.27280445042131
-6.99293622406828,-1.54689758394455,9.72247573975036
-9.59424235019563,-6.44853569480649,9.85442922386664
-7.24489400078287,-7.56043803701022,9.70291025509649
-5.6232356292355,-7.5580949577338,10.10224922569272
-7.2892878515261,-7.98333829484854,9.87924942834676
-7.5820533569944,-7.35158507228973,9.81053115836274
-3.58966322252076,-6.55470982590425,9.36610953328557
-7.64049470975463,-8.42585506554441,9.79391012861104
-7.80322305899643,-5.94176238051405,9.44182274867275
-9.26321563070122,-3.42298768557839,9.68569757230508
-9.63640881854298,-7.39816563177489,9.90346993520336
-8.95522617855925,-1.43614365545153,10.00784694711954
-7.42084312718153,-4.47500806589569,10.07649465825789
-6.13021618990246,-2.55518517940093,9.84606073903098
-9.62420153490976,-6.90677551834647,9.8093440248029
-7.93001506830062,-3.08522496336342,10.18596764627181
-8.13417153605595,-7.62937677356038,9.66858633132108
-8.38950968432715,-2.58647385093783,9.57963742794618
-7.90776114523227,-4.98768537449261,9.80659730320769
-8.27230114981124,-4.05080408709376,9.9275703393016
-7.820938098779,-7.33481505849341,10.12788898603478
-7.53376420118056,-7.24097890179063,9.87884035449989
-7.70520687623493,-3.51519097055333,9.95634169534014
-7.50191658060148,-7.19248250006087,9.86468258583863
-8.07802612202427,-3.74950812030878,9.73805177200049
-8.29657240484212,-7.28749122427904,9.90944530713645
-7.45395001199706,-2.50152577115582,9.85588820554773
-9.31077812247968,-7.54329260768386,10.14758251554749
-4.92098386367237,-3.22914788475583,9.6422582428318
-9.23848674697564,-3.07594507077579,9.88728466700521
-9.04190257388947,-6.40840479717922,9.89480996454689
-5.88779192079268,-2.86020568629558,9.40858647700017
-8.33265453892942,-3.79525304986622,9.76259402841062
-7.88936480647548,-5.94999693834947,9.74729227151283
-7.32652563696676,-6.72083296803057,9.78754439021168
-7.77224072663247,-8.2236251306253,9.53386931669071
-7.75095779673648,-3.31830274818666,10.01692302377503
-9.98054803366963,-7.47665379843667,9.98594331937397
-9.5099841138,-3.90081507107175,10.01579447642308
-9.25651231507081,-4.67599229107394,9.65334480675274
-9.34448048389988,-2.28787647064056,9.84771928467591
-7.54947022241763,-4.4611568259895,9.61453284121316
-8.10180755827454,-4.5999137351457,9.86812260579039
-9.11236960766721,-1.9427765415989,9.61927398314481
5.63777598047046,9.17640820981717,4.0357178201856
-9.60686571483009,-3.07814085401371,9.84513722001258
-8.77924861439193,-2.59177889825357,10.01078808636522
-8.68367592139918,-7.39121264118288,9.34816375966786
-9.31523362238428,-1.83018742946945,9.35151767282733
-9.27953302350835,-2.09012111843823,9.92619130965276
-8.87259806661726,-6.18971888634205,10.02393343028889
-9.73287882882516,-4.16335815184332,9.70694517357085
-8.47391425243784,-3.41012460773611,9.95302997915335
-9.11875724607212,-3.73564389705187,9.98586317632536
-9.371320011771,-2.47155595469645,9.73696281396231
-9.31554632004393,0.89434573735579,9.79275071225121
-8.97215555736225,-0.05432324386585,9.87816357232376
-7.92328623579632,-6.30164459305674,9.76866847749137
-9.71893503712263,-1.34273078527068,9.76724793702818
-8.95111921415583,0.94229748822269,9.73148513613892
-8.85218601239834,-1.78589375447391,9.66653837495338
-9.7541241515632,0.25150471717621,9.3236432940453
-8.67203039161973,2.79575095501474,10.01299453573963
-8.05617088334312,0.28963868175975,9.90612082648035
-8.233862016908,-2.09764533388303,9.72829659556474
-9.3319041535596,0.11527342534353,10.05056071815074
-8.00292637203258,-2.36625014753092,9.95905252464094
-10.09101929071624,-2.67778458015021,9.68513511847404
-7.44146443214098,-3.37195075133278,10.03954677235978
-9.28149090347426,1.99543410811331,10.07678873638705
-9.6513181854801,-4.30392568490334,9.81090332470478
-9.12941724458493,1.92681971501732,10.01279602160174
-8.61287817263263,-0.88875241995381,9.71120213797904
-9.75023071503156,-5.56061284305881,9.86658986919562
-9.53290505806799,-1.11487668528663,9.7323525043827
-9.60410579012905,-7.17398680549459,9.89993551494987
-9.66719523730668,-0.16511138472366,10.27780066825706
-9.46249236273996,0.68841185042062,10.22262292425742
-9.70769440321414,-3.51921332663033,9.58467274671446
-9.35433641030821,-1.68594611575535,9.72218314938306
-9.53596766617804,4.03609052985689,10.14611092172731
-8.36630762702247,-3.28341627853921,9.66746973941884
-9.16759451729307,-4.26723969571488,9.92477836785016
-9.7446570928317,2.73976157712536,9.92456542633232
-9.33505706576254,4.06011751899441,9.78361142254563
-9.77633430796447,-1.4074001968254,9.11121643654481
-9.45295765576122,1.52598547200218,9.81336217416461
-9.52186065579682,2.57271120943403,9.94553078860226
-9.66187080445042,-3.1878463383785,10.26975310603075
-9.32256200639279,-2.33958836343594,9.83408366713842
-9.55959925874207,2.6781795391201,9.47506983376254
-9.01375939902668,3.93257593710542,10.05327755598819
-9.67693729203564,0.58621186417302,9.76622026910708
-8.68476891433928,-3.77558039017648,9.73428461705534
-9.89832518139896,4.57556390892904,9.895019950322
-9.02480894289217,-2.084251073338,9.98818821681296
-9.49072370778876,-1.62237546220441,9.58584846601338
-9.15887243194756,0.30894427465268,9.85731723664143
-9.87455967613371,3.63065643812308,9.76117475640459
-9.97544278433664,1.57389532118875,9.86078683747407
-8.58470923750478,0.87330919283779,10.05907104080423
-9.29172429335476,0.72520982114501,9.61106756775611
-9.37959814151981,-0.20611336541778,10.13298290367167
-9.93507514482827,1.03804744754547,9.87081862411527
-9.05886594062245,-6.6519686424615,10.20160401546683
-9.65728318372264,-0.95313262723111,9.7900275844239
-9.46874662958033,0.42717899027011,9.69726838502797
-9.97615483814443,-3.45104242237504,9.63162456157386
-9.62460712795165,1.08293659234951,9.38334020307506
-9.76154880157154,-0.77616933801979,9.91793003357092
-8.36948475391182,4.54668888718655,9.99465471880201
-9.51481210191427,4.61084434997627,9.73282430259203
-9.28115042121689,-1.28178089811861,9.87751745626453
-8.73700078726992,-0.09908941810448,9.74459570256332
-9.62949722830939,0.23996062734414,9.81081098021574
-8.55779047216084,-0.71365896701904,9.98859320518835
-9.65224299063259,0.72756058070648,9.4930271322989
-9.82429524280953,-1.92038641443254,9.86682939414124
-9.95834404669753,-2.63398422625808,9.44180264406771
-9.6881855201909,2.43904217946861,9.9266696426399
-9.79368991628088,2.79714199700007,9.67731480365852
-10.10128107576804,-1.73507002072478,9.70178370980858
-7.99415355989884,3.37283844400813,10.11384866837643
-8.92002458525834,-0.95653759778208,9.73427999009798
-9.05337149764579,1.37736954723534,9.33531070797121
-9.68967456554784,3.16777106365879,10.06165566342356
-10.39539878408511,0.92470656963065,9.32658932229212
-8.4808179746159,2.19739055590889,9.90671232774309
-9.59286327867583,-0.67359353141135,10.06257989327468
-8.5305837861147,0.35120908069953,9.9674384042436
-9.37666483306497,0.71898448889916,9.72386119914858
-10.06654781671387,-0.89554712407966,9.72919860779041
-9.21513877774334,0.74925229212725,10.05411088788181
-9.0539061747142,-2.9933462031837,9.65503561118338
-9.00401510052566,-0.13818253992108,9.59840871121236
-9.22087545874737,0.67595052749176,10.05702565073806
-9.18029086613372,0.55292459389306,9.84032273855778
-9.76988374069342,1.11889246362498,9.89967145548529
-9.3623581299411,1.70442009310166,9.7760280269009
-9.06743556167257,2.76208839094782,9.39974137144498
-8.6634915669552,4.13514215273749,9.68946862927259
-9.46358239463776,-0.0153604706283,9.78863118018706
-8.8845681617592,-1.45975174684542,9.66925749662214
-9.32561687108228,-0.77622414002564,9.67041216068514
-8.82460063381051,0.63456282955668,10.37618009572479
-8.42801471271471,1.10941074430165,9.70291140352967
-9.02908477674016,0.44820950504609,9.75965955261922
-8.82711820939282,-1.42460072139206,10.03144141823625
-9.39408019260783,1.29483479689154,9.23432030276005
-9.86846941149262,3.07013369551185,9.69948532337037
-8.41249164520881,4.03485901993336,9.80212151606208
-8.92677354517666,0.7941659408062,9.8879308479214
-9.31514585300738,1.39695274229698,9.87977127995538
-9.9798984197147,-0.19607724757404,10.18632909148828
-9.54406793865505,2.45038204273593,9.75984268941321
-8.39995858362233,0.25210119793082,9.47945158560532
-9.33638119149751,4.33504244264088,9.83997331510182
-8.20309610598922,-1.98032008219799,9.45959775729898
-9.68589620984433,1.76363401752686,9.48220210931385
-9.17488102338316,3.71662842849002,9.76350385577034
-8.90063581593558,3.11382575932557,9.99366144655786
-9.14971176150516,8.42035394419187,9.84701522663933
-9.09545727926041,3.64770830694453,9.40110059992562
-8.8091017991553,0.4751318272427,9.83901712027948
-8.89405091589449,2.88541368941513,9.63886575729935
-8.65271789065407,-1.78581781737254,9.38319357936824
-9.04690474668018,3.09411852981454,9.70224500688476
-9.17000084063151,0.8234032766115,9.63417303331661
-7.55881973614223,5.69553346184717,10.10252126212497
-10.04717545255015,2.18638982306224,9.31125873748374
-9.01719557618929,3.16563172895733,9.75906884964912
-9.25127323775722,1.86428028107483,9.74916158757507
-7.65262275155205,7.47897568205146,9.79591880479104
-9.11668909287316,2.90296295305169,9.60266995700993
-7.9686370572224,7.41869706665346,10.03715160062576
-9.12538055395759,5.90933871196526,9.6439075965032
-8.1766416369587,5.18514810431485,10.112577828676
-7.75054673039279,4.90884972337558,9.84496287750791
-8.6157871450184,4.88276560672558,9.96592049175676
-7.36393094635972,-1.14357097351761,9.54133928206088
-9.12093390347536,3.23310230239056,9.68565629941617
-7.28972260801089,6.14136434740154,10.17946488265547
-5.74493413242671,4.36233149662699,9.59957048644615
-8.82858060800297,0.41279644478862,10.24583456145046
-9.16244346140702,4.01106510744028,10.04694737448621
-6.82254211371485,8.30777492204161,9.91404646816684
-6.39635995925547,7.11597565420319,9.85726091272856
-9.0265612181161,4.51066219918591,9.84997567917277
-8.6548305770444,7.1521524146726,9.92518940377159
-8.8594422671678,3.53194325241918,9.53909787824719
-9.51912639838357,0.11102278351867,9.92077191451568
-9.2991790964985,2.1882821157888,9.41772030222612
-9.63298952992329,8.29537727284447,9.67581273126229
-9.08653232434437,4.12629777467891,10.08811316710364
-7.99571531612934,4.23825365362172,9.27145600585371
-8.04656282138259,4.17107932879231,9.94686761000353
-6.27819642926649,8.66385218401884,9.44556825360707
-9.11353252771022,8.36897998146083,9.78063085176353
-7.00521278876742,8.63709798571184,9.9714901978334
-8.52226308806379,4.80375094760025,9.9001455593249
-7.98954419724778,5.9175314424818,9.62924429180028
-6.8745175629843,1.09769829941542,9.50992323272504
-9.04310150083575,8.36353222915247,9.87463301906176
-7.78673566999883,2.41136136975614,9.80270179693067
-7.63515652806956,6.09900780616147,9.95515893554562
-7.15956759713485,2.47642963795355,9.96591252244308
-7.6663889375137,4.03013967908116,9.38861008723443
-3.95201205267299,3.28166736723396,9.53106948109211
-8.5571215162991,3.92961231865685,9.56577635245011
-8.51660818728121,4.24410112331872,9.79453904133498
-8.58824748256385,3.93986604213103,9.32762514910663
-8.70136445816256,7.44230546809188,10.54326981000815
-7.712229461327,3.08553112610139,10.0679197267216
-6.2186406875798,6.13352220841802,9.92533790123994
-6.1140799436927,8.36141723163495,10.04413703407215
-8.10921802614263,4.90574084024736,10.19651394326222
-8.79516767359954,3.80316615474128,9.97636207846972
-6.98968499506427,5.30319141497892,9.96681487243276
-8.52122474209906,8.08551243735961,9.82562136603514
-6.6394933599907,6.39233432850188,9.46499152281233
-7.19565612108582,4.66440359994864,9.67326159243839
-8.80147255098117,7.02450558937049,9.64003808047058
-5.14514550353712,3.58084308547755,9.58460192045457
-4.25020924506313,7.45951875285036,9.51400206491423
-8.26877917910628,6.99905446395023,9.83373163497437
-7.22872992466064,5.45558083389032,9.66243837495854
-7.21243549135933,4.43900102832227,9.87352294790932
-7.0264068933479,4.69478559216917,9.90591704459069
-5.7549397305711,7.43479764019718,9.93605649938021
-3.79463624920714,8.8218443804682,9.67672442546782
-7.00283054044907,4.88206679964644,10.3403251749024
-7.7641783565078,7.57550613569766,9.7420615130835
-8.28521594212665,1.38944079089182,9.55566984095848
-7.63502992356651,5.49890159978483,9.75965247469409
-7.09390062826397,6.64985967618633,9.93849809890654
-4.25360110834854,5.01978483709287,9.69839113490394
-7.26917185713605,4.83937269718533,9.39882107715847
-6.21589372140906,5.33984406033461,9.95402007433022
-6.14473155821963,7.0658859975564,9.83426046650474
-4.86826761772774,6.46556562401839,9.93172431537284
-2.34208658756979,1.5153924545032,10.05260572154799
-7.69989310143287,1.59831058806319,9.63173105021435
-20.73669933035764,12.82381373249674,15.8194488596571
-4.56096421641162,7.72568117573658,9.69450445615917
-5.20007747511773,0.33278574023483,9.91722408759009
-3.40105372476714,6.20844766413529,9.95869783917569
-5.26009019709437,5.63995720898643,9.51527005305866
-6.89559003525048,9.09719619601927,9.9133764886232
-4.74937756538043,6.55872282177555,9.84741533996852
-4.30485945817445,8.38065213988746,9.8215473433599
-4.98973752550266,7.96772160157272,9.59430998283129
-5.04614635953194,2.72644457184938,9.55388610440698
-3.99709837335396,8.38412779801165,9.91180080755404
-3.74405373840885,6.93812282066105,9.94881693520222
-3.27301056594221,8.22366024928126,9.64388739732129
-4.64462318721331,8.60784654907891,10.04669531979039
-6.04924524510535,3.04613734840489,9.62307847489992
-5.82269127157819,9.78321578250478,9.80507700681029
-3.79312100667071,7.23028188630633,9.77155470135924
-6.83259678725144,8.57505434161831,9.79251701997948
-4.93208711551401,7.43196720379701,9.64156114146758
-6.08372493154906,6.99577823041669,9.63432701626723
-5.50908647681548,7.01143977190434,9.65487645283479
-3.21102099418475,8.15742481596601,9.79263635939835
-5.24125096948384,5.23285529401752,10.19264350395908
-5.60786471726374,8.85268287010459,10.047428573089
-7.08510288035341,7.56303810950542,9.64830148475276
-3.9198384558823,5.32292236948865,9.62648497924391
-3.9434232666595,7.38740863760477,10.06591787404723
-1.37981084034281,9.38468912725117,9.79375173079674
-5.78533110281923,6.85839639655601,9.94602942868443
-5.08924179885974,8.6726639772249,9.92638892401845
-4.63255851371936,7.29949509583567,9.81731808349842
-2.16154760307821,8.84388132061581,9.7191394416338
-4.50348646579746,8.85347437138534,9.54891417616267
-4.44138228933212,9.37644859943625,9.67221703365502
-3.31897568468948,8.13749623339964,10.00367755287439
-4.42298499661124,9.53057160933892,9.79051303664692
-5.58311294695479,8.9188913217889,10.20348380906117
-4.26830652534113,9.23945396277724,9.72987241834073
-2.02143180078283,7.58997523936242,9.90794079135216
-6.16375819785809,9.288237364818,9.96662354015931
-4.00941564763857,8.28315109636444,9.91562972277764
-5.48479936782517,7.81272557790272,10.01884846170786
-2.47275394725474,8.44443606499241,10.05668716654686
-6.44237851385583,8.54592220125318,9.57332175343004
-4.77728120798725,8.58203208952268,9.62340916562272
-3.23466515931314,8.82552100766909,9.70880646639952
-1.33754956161636,9.48253432582482,9.30447958012406
-4.51923996410293,9.4538017960567,9.79843379270781
-4.96041522315801,9.7584057687146,9.8860541796791
-0.48039107207552,8.50143283626521,9.36137680105144
-6.12982396117389,7.62139961916717,9.89315854632158
-7.39929723872912,9.65848661850988,9.96569412894272
-3.20943047667929,9.63119966223147,9.61125438044162
-4.37490389541875,9.73215229953411,9.91474375332201
-5.31539295101963,8.37211752157674,9.86934918413618
-2.21166308965797,8.1596656398032,9.9403119091908
-3.24817619846072,6.01823845074722,9.89303232545158
-4.68886234002969,8.33159661888415,9.61781304157032
-5.81240587881934,9.72301169626929,9.88376190399949
-1.52931187008274,8.74445614193072,9.96867972525672
-2.16764729589503,9.17774290027962,9.86016471621175
-3.1904606784556,8.44057575939283,9.85511211489568
0.30383476204565,9.11281222436108,10.15379721072198
-4.87626282104485,7.64873184990934,9.75824655196643
-5.64772383052385,9.27453784032927,9.60529459403321
-4.48811588360165,3.59617824842614,9.59259379550707
-3.17311278768894,8.80468979300793,9.87241575194271
-2.70329395772767,6.3397536261914,10.15434734652948
-3.20688578098254,9.75831868743415,9.76340880695885
-2.19327863148147,9.22364671365122,9.99625833845824
-4.9970318037435,10.14806634506601,10.03847465058039
0.07860698034375,9.99097793143179,9.93676122761705
-3.00404906525997,7.99222035948072,10.09564282676944
-0.36168393326617,9.16919267116387,9.38943714418648
12.13963299813928,21.15911685177483,11.88304357177631
-1.96663264353845,9.25447346201185,10.05924544915172
-1.63756080114059,10.19185348833168,9.96507736546836
-1.64646722692093,8.18632755246335,9.88477125761701
-1.40243109003367,8.36310723912775,9.88591593547396
0.17757987312972,9.24173194501388,9.60815733578279
-1.71027243935163,8.94636878037138,9.6612896998537
-0.85605283288951,8.28938758201057,9.70427666478097
-2.47996296845228,9.14733124237415,9.48543651397447
0.74741876201443,9.07625260264615,9.69843949454427
-3.1865009453512,9.7047491268406,9.70580377026066
1.80557419656056,8.20729415148049,9.93666692322198
-1.80509576779955,7.45286767470915,9.78552655135783
-4.49874345495414,9.92017810537869,10.20314518437688
-1.39091382178733,7.04695649425132,9.95168919533228
-2.69884073162462,9.00385251114198,10.13888757999854
-0.02784019161419,8.28259819561047,9.76201913996648
-2.55047692335279,8.87989591562347,9.45757645995372
-2.58622933662368,9.48057763378151,9.54625412491215
-4.63963799928795,9.75734404683578,9.44270528274867
-2.33158569915334,9.44253667037306,10.00291289938616
-5.81209105161877,9.1972143996512,9.49313426809826
-4.14812792067894,9.72384429477926,10.04680560490408
0.27864947219874,9.26445584819415,9.04444522865714
0.34394604455663,9.9383881156889,9.62656768162259
-0.32047598475114,9.60463877416399,9.76146361626844
-2.88967427173676,10.36587788603984,9.73783931906884
-1.3697766196446,9.2828835760469,9.69209641825878
-1.0469389616243,8.00915429027694,10.17357027290931
-3.14256224532146,8.42723609855212,9.87988206509982
2.15477798120317,9.70522385875015,9.90398256218856
1.26831120662384,9.43646656732823,9.98446574478881
-1.15671078099826,9.42959507940561,9.47812530777323
-0.71287282568188,7.60968634475381,10.06651353027688
-0.25406931198503,8.60024878639982,9.707765424261
-4.32758195891317,9.57947651244914,9.7052674346104
-0.84091917785791,9.13565829294639,9.96252106818284
-1.59081139341125,10.08767332854225,9.88233577171746
-2.10520047968214,8.59863094486891,9.69222951746564
-0.66107899290916,9.6573515514357,9.80307898727918
3.16303812717268,9.29791122663743,9.95809736164954
1.38464941904799,8.39893177543283,10.12359080245244
-1.20157682171389,10.01640548259772,9.88214249843743
1.08782355333435,9.88553974679102,9.72837992239246
