AccelerometerX,AccelerometerY,AccelerometerZ
1.764052345967664,0.555962679709798,-15.329210534301279
0.4001572083672233,0.8924738873315303,-17.119701640942214
0.9787379841057392,-0.4223148241252707,0.46135058955684927
2.240893199201458,0.10471402943328433,-9.583744802265615
1.8675579901499675,0.2280533251240672,-0.8081161294374096
-0.977277879876411,0.20147994670443287,-7.038590359904466
0.9500884175255894,0.5407735853003902,-7.7078430070656525
-0.1513572082976979,-1.8180776303835695,-4.808453408727291
-0.10321885179355784,-0.04932407014757259,7.035855546433884
0.41059850193837233,0.2390336012467649,9.29145147768691
0.144043571160878,-1.0003303489537054,3.711725526490392
1.454273506962975,1.67398570701071,-9.898225495471193
0.7610377251469934,0.16155926723816796,6.436312754533384
0.12167501649282841,1.5634047450289295,6.888966666079322
0.44386323274542566,-0.7905230218330772,2.7464720361244455
0.33367432737426683,-0.907300121525327,-6.036204360190906
1.4940790731576061,0.2242522209656819,7.088595753671402
-0.20515826376580087,-1.6786883628286566,4.228185746766615
0.31306770165090136,0.21496559062609352,-31.16856591599126
-0.8540957393017248,0.09721923200291803,6.444520334110423
-2.5529898158340787,1.0156652815421012,-19.13742670861507
0.6536185954403606,0.7010413411650971,6.635615765913815
0.8644361988595057,-0.417477349885034,-1.540723984248353
-0.7421650204064419,-1.0974966547702447,11.936116807491981
2.2697546239876076,1.7123052213432965,-0.9816121120593053
-1.4543656745987648,-0.79211502056515,-8.866142600561124
0.04575851730144607,-1.0455245570694658,-1.4735366458284367
-0.1871838500258336,-1.0848560594614451,10.598062949337745
1.5327792143584575,1.1173053155366646,0.26246617861587385
1.469358769900285,-0.5189002044248521,-1.143351598723768
0.1549474256969163,-0.7537044661806008,7.435535155083369
0.37816251960217356,0.13768982590334733,2.103593666298129
-0.8877857476301128,-0.20694471055729102,-0.05927405833231806
-1.980796468223927,-0.6780954607862469,13.660600684033316
-0.3479121493261526,0.7539914669784796,15.551140320590678
0.15634896910398005,1.0653154920979948,6.133262263287012
1.2302906807277207,0.9853175089398669,-2.8595915148517292
1.2023798487844113,0.766919669661199,14.969109935208271
-0.3873268174079523,0.4026255311300352,11.831195573317071
-0.30230275057533557,-1.775887999961829,7.188971655282916
-1.0485529650670926,1.6692508063769687,-12.16076580745861
-1.4200179371789752,0.30198921035755294,1.406719033079609
-1.7062701906250126,0.6081564276006415,-7.436721747008731
1.9507753952317897,1.1149623229474022,-1.5901225155435932
-0.5096521817516535,1.4333525028819918,2.400569292967187
-0.4380743016111864,0.4183980113091925,1.001594080906235
-1.2527953600499262,0.4355461592956536,-4.751751058292485
0.7774903558319101,-0.5992242774597194,12.729537489199107
-1.6138978475579515,0.0330897511387602,-16.961312668315433
-0.2127402802139687,-0.8541612608143545,7.301835311296144
-0.8954665611936756,-0.7199405321418947,-18.57483271594538
0.386902497859262,-0.8935744023141913,3.825981367234629
-0.510805137568873,-0.15602389099728736,-8.869043262838757
-1.180632184122412,1.0490931879200103,8.783037577325304
-0.028182228338654868,3.1709747732901796,0.8645252400759346
0.42833187053041766,0.18949963754791346,2.477063784668243
0.06651722238316789,-1.34841308775612,-10.182793255668514
0.3024718977397814,1.264983329856256,-6.545701349975839
-0.6343220936809636,-0.3007838764760271,2.0721739341095335
-0.3627411659871381,-0.660608593976992,5.835699269093039
-0.672460447775951,0.2098494779230553,29.290962417638614
-0.3595531615405413,-1.2406245995562275,2.228583231034867
-0.813146282044454,0.22246316400860677,9.760375253689258
-1.7262826023316769,-0.08837552319915497,-15.569339325092606
0.17742614225375283,0.09837790681547566,-13.298918613340629
-0.4017809362082619,0.38141625420917086,-3.5549477460845202
-1.6301983469660446,0.0674922572408068,-11.974276956385664
0.4627822555257742,0.016338084112892493,14.863992534663845
-0.9072983643832422,0.2843145189979445,-4.102186927803287
0.05194539579613895,0.41540062617112683,13.821818883931385
0.7290905621775369,-1.0314824603152577,14.867824740856308
0.12898291075741067,-1.4299912586854484,0.4277971988356689
1.1394006845433007,-0.061638052172214755,5.01799753807639
-1.2348258203536526,-1.432735489934108,-0.5609947334090291
0.402341641177549,0.08753147092167086,5.384370003545387
-0.6848100909403132,0.9387468756823101,4.833418517805717
-0.8707971491818818,0.6071116719160459,-1.2364962589203072
-0.5788496647644155,-1.0481704068254731,5.049699814628403
-0.31155253212737266,-0.8602624519575188,17.236962756672618
0.05616534222974544,0.3283012950007554,7.130162297109377
-1.1651498407833565,-0.40129780513351004,3.2579961364062555
0.9008264869541871,-0.31665529505210693,1.2476952104321242
0.46566243973045984,0.5969064812479539,-10.126731237685911
-1.5362436862772237,-0.9872866934576524,-10.272968770754625
1.4882521937955997,-0.40123470991118243,3.2335653148025862
1.8958891760305832,-0.8000824760846013,-13.693911240471571
1.1787795711596507,-1.0431294980353556,-7.663275989635832
-0.17992483581235091,-0.8570781886711647,12.815113403641332
-1.0707526215105425,0.6774621693464117,19.14229697062814
1.0544517269311366,0.05182038948242156,-16.659560767977183
-0.40317694697317963,-0.8791606288350748,16.26649562301582
1.2224450703824274,-0.23110160759299653,-2.1143829084555663
0.2082749780768603,-1.6388073071221778,-0.15005087031364805
0.9766390364837128,-0.7333128075836657,-1.1341163064273396
0.3563663971744019,2.149574534867287,10.805441270254871
0.7065731681919482,-0.0902438496657506,-16.07676579043177
0.010500020720820478,0.7316589270303925,4.561636113551334
1.7858704939058352,-0.06548837514448298,-9.448701973880109
0.12691209270361992,0.34816923524180865,5.707885293815737
0.40198936344470165,0.663258089679174,15.427963382930518
1.8831506970562544,-1.1046165975264708,-0.0041732641262016675
-1.3477590611424464,-0.030936257273958937,3.7415508597080254
-1.2704849984857336,1.5788651944164882,4.0955177823769136
0.9693967081580112,-0.795500550053291,-7.995934996704901
-1.17312340511416,-0.5664398537322193,15.116393498843184
1.9436211856492926,-0.30769127736700175,17.06468247260989
-0.41361898075974735,0.26902407317624666,7.01783372117029
-0.7474548114407578,0.5249178636458827,0.7328543200764547
1.9229420264803847,1.2674116548186567,-4.618938153542846
1.4805147914344243,0.49949823346865946,-6.2649022314908756
1.8675589604265699,-0.06205312579833403,17.108365825466556
0.9060446582753853,1.2591671296108138,14.144150427290237
-0.8612256850547025,0.7041110221415822,-0.6366148878954943
1.9100649530990337,-1.4956795162570162,-15.799305296711237
-0.2680033709513804,2.5263682403559984,-28.32011869908987
0.8024563957963952,1.7699213881967337,-10.834266602642797
0.947251967773748,-0.1682142227670741,-1.306203959951194
-0.1550100930908342,0.37791010173847506,14.006890344430014
0.6140793703460803,1.3243587499958391,-6.516562090577808
0.9222066715665268,-0.17220079269688263,5.048154563405017
0.37642553115562943,0.7303517903770194,13.031809616484324
-1.0994007905841945,1.1045784735714765,1.2853631685604816
0.298238174206056,-1.014825907734441,-1.4244786878884133
1.3263858966870303,-0.6023318535828621,-13.08763514238608
-0.6945678597313655,0.9214083978105813,-12.024753082044327
-0.14963454032767076,0.4608144771488305,4.160996344158233
-0.43515355172163744,0.9237965603139469,-2.0090753320092674
1.8492637284793418,-0.13256801465371804,1.2253131765330154
0.6722947570124355,-0.289005210954233,-0.4727771569624714
0.40746183624111043,-1.9986394755833727,6.641440493586504
-0.7699160744453164,-1.1460004265074433,-7.846874114294452
0.5392491912918173,0.04706609465849369,-3.3558064358316693
-0.6743326606573761,0.8245572195642364,18.96182228633144
0.03183055827435118,0.5311783665356953,-7.997861383857707
-0.635846078378881,-0.12824197402770202,-2.8157543080010212
0.6764332949464997,-0.27177156649069667,-5.893867019785693
0.5765908166149409,0.21717963263828013,4.447813624072502
-0.20829875557799488,0.07821118109215218,10.223923224420695
0.3960067126616453,1.404545514939712,-4.982116185861097
-1.0930615087305058,0.14644077047824985,-4.314143411046852
-1.4912575927056055,-1.4812459621972984,-2.789816053030303
0.4393917012645369,-1.272558135032317,5.298337834749577
0.16667349537252904,1.5187593369635801,-7.393953025101954
0.6350314368921064,-1.1711604614500803,-3.7595996597125914
2.383144774863942,0.7644974530335336,-23.721938715130154
0.9444794869904138,-0.2683727352093812,-13.817450094949852
-0.9128222254441586,-0.16975829390248548,-1.1244375601928822
1.117016288095853,-0.1341327827684201,8.978641732031214
-1.3159074105115212,1.2213849594591983,2.950757833018624
-0.461584604814709,-0.19284182854396467,-10.987684566672995
-0.06824160532463124,-0.03331928284515295,-14.00256208127942
1.7133427216493666,-1.5308034973994926,1.7468009289816875
-0.7447548220484399,0.2066905117080033,-16.528036422528437
-0.8264385386590144,0.5310425069780597,10.65926818716889
-0.0984525244254323,0.23914558065378702,0.6389619165017826
-0.6634782863621074,1.3978962610867354,-16.07320159234058
1.126635922106507,0.05517135478023174,-9.659538588418696
-1.0799315083634233,0.2989774561190176,-7.2431131923112275
-1.1474686524111024,1.648504010268179,-7.731925102234387
-0.43782004474443403,-1.5500141893581478,-14.899330082214924
-0.4980324506923049,-0.45582534779936884,-8.746625219888452
1.9295320538169858,1.4261587520192662,-6.844015561404262
0.9494208069257608,0.9361291483110824,-7.112857556104383
0.0875512413851909,0.6783800988404703,11.279566249333806
-1.225435518830168,0.8326507394644783,1.0482780282721458
0.8443629764015471,0.3270662091210221,-9.932572174375524
-1.0002153473895647,1.6315974275322715,-3.3462160595412205
-1.5447710967776116,0.3777591697307179,-8.795570973113842
1.1880297923523018,0.23986710589527857,-3.00006659011757
0.3169426119248496,0.15895867412564327,8.755091531413832
0.920858823780819,0.19286395555038602,2.522707806121254
0.3187276529430212,-1.1570172808158679,22.856011815280667
0.8568306119026912,0.7706730544633433,3.759274257674802
-0.6510255933001469,-0.13043973378332732,-9.135945099771071
-1.0342428417844647,1.821915097860406,8.097407308144474
0.681594518281627,-0.07565047058842289,10.799312171425356
-0.8034096641738411,0.4209182841756566,10.941669914439437
-0.6895497777502005,0.24660218626133443,-10.942409530350915
-0.45553250351734315,-0.6255570351092533,-1.476374145148375
0.01747915902505673,0.9921368285185058,11.318119568284526
-0.35399391125348395,1.9050636405600176,-16.84728958873941
-1.3749512934180188,-0.014777219659844777,-4.994167610220383
-0.6436184028328905,-0.3004787855854223,-14.269376854269915
-2.2234031522244266,-0.3550287310553741,-9.325702298970132
0.6252314510271875,-1.8923618933173414,-10.124571527438063
-1.6020576556067476,-0.17781314370301254,12.505698325434349
-1.1043833394284506,0.25099811600832395,-2.345380349087504
0.052165079260974405,1.0547579251802828,-8.633555813417825
-0.7395629963913133,0.9600477411499279,-10.356057313844946
1.5430145954067358,-0.4164990824366925,1.416671648715303
-1.2928569097234486,-0.27682299477388833,-0.11135627340667108
0.26705086934918293,1.123905305614439,13.44074374673427
-0.0392828182274956,-0.17346389707287913,5.0001669585730255
-1.1680934977411974,-0.5100295397556169,-14.317977780650375
0.5232766605317537,1.3925184494342724,-6.289807075912684
-0.1715463312222481,1.037585667050634,10.700725120709771
0.7717905512136674,0.018791791774257802,-6.210826977013774
0.8235041539637314,-0.5937774477786675,17.34572174923709
2.16323594928069,-2.011880319244709,-10.982894313247467
1.336527949436392,0.5897036055747239,5.7261335304079015
-0.3691818379424436,-0.8963697225521802,-8.612155533986416
-0.2393791775759264,-1.962732009140752,-5.095951329463574
1.0996595958871132,1.584820527349018,10.985816482311465
0.6552637307225978,0.6479677910098883,-1.2706716283851693
0.640131526097592,-1.1390081931169653,8.13452245114107
-1.6169560443108344,-1.214401382959259,4.732905949147995
-0.024326124398935636,0.8709617821716196,7.538656835623008
-0.7380309092056887,-0.8779706165358702,-8.881882110855132
0.27992459904323824,1.2961498675278833,-2.215743982040007
-0.09815038964295794,0.6164593126261553,4.242526181008702
0.9101789080925919,0.5365965205668235,-8.490728726936604
0.31721821519130206,0.4046954556143003,16.295000432323285
0.7863279621089762,0.19145087202391178,-7.772280421551344
-0.46641909673594306,0.8805111991771105,-3.000035769377952
-0.9444462559182504,-0.45408036251560513,-10.065590647942376
-0.41004969320254847,0.08595197343438468,-21.433080652386884
-0.017020413861440594,0.7519465876771957,17.96918522574928
0.3791517355550818,0.5629897185861278,-2.0433893690304723
2.259308950690852,-1.1949868052686603,-4.479148384155403
-0.04225715166064269,-0.500409667304264,-1.9871506167079867
-0.955945000492777,0.25280350541915453,14.198639721964357
-0.34598177569938643,-0.4080147090398969,-9.651066080644172
-0.4635959746460942,1.7746585609733332,6.795678657650824
0.4814814737734622,-0.39315319475411287,-4.237882485494763
-1.5407970144446248,-0.16221844757669085,-5.966708555383098
0.06326199420033171,0.7694301781773039,5.670582125201824
0.1565065379653756,0.33053274323491577,9.88240573742697
0.23218103620027578,-0.14527445720476923,-5.139029502799155
-0.5973160689653627,-0.7564935288807483,-7.688491596748099
-0.237921729736007,0.3015140573967662,-11.690957473220271
-1.4240609089825316,1.0390964403783927,11.035037667283756
-0.49331988336219407,0.4790952240982286,-5.7525599480611795
-0.5428614760167177,-0.7781835214561222,-18.49130727275451
0.4160500462614255,1.7367749569767108,14.099521383961463
-1.1561824318219127,-1.4465778900358943,-13.698595019529423
0.7811981017099934,-1.582685641802789,7.7946053125906145
1.4944845444913688,0.9605572244572284,1.8342864666752474
-2.0699850250135325,0.2258404786026901,2.8791543221527838
0.42625873077810095,-0.5494985463040403,-5.843752753113219
0.6769080350302455,-1.0985707275553296,3.6559146022463604
-0.637437025552229,2.320799839280298,-16.677798928842375
-0.39727181432879766,0.11709087215544195,5.880377487398128
-0.13288057758695562,0.5342011708457715,15.570100415321601
-0.2977908794017283,0.3178850972381816,8.840271974263262
-0.3090129690471222,0.43480795773115793,-20.195400853867213
-1.6760038063299767,0.5400944605248059,-9.842090022728483
1.15233156478312,0.7324240097548762,-1.8779492197480692
1.079618592036821,-0.3752224007606727,4.869373049399327
-0.8133642592042029,-0.2916419863518446,-1.066526736602251
-1.466424327802514,-1.7410228083589014,-4.932143871104978
0.5210648764527586,-0.7803044065015394,5.953003076922928
-0.5757879698130661,0.2711127964467149,11.641517662249663
0.14195316332077967,1.0450233755026905,-2.3229400718659736
-0.3193284171450952,0.5990395263761841,7.289298673852393
0.6915387510701866,-0.34069234387793046,-25.790507451894747
0.6947491436560059,-1.2631729120851543,-9.375093861087292
-0.7255973784635843,-2.7773591454274333,-3.212589370580095
-1.3833639553950554,1.151733974780799,-4.8856622075462575
-1.582938397335082,-0.5892289865101498,3.3279821740445477
0.6103793791072052,-0.44846500620405927,10.137505474982607
-1.188859257784029,0.13157396790806872,5.066690260283885
-0.5068163542986875,-1.4055600473918899,-6.222254717550558
-0.5963140384505081,-0.3497821801115369,-15.227680905041861
-0.05256729626954629,2.023471949769974,5.56964120578887
-1.936279805846507,0.5053869385773427,-18.38176739670012
0.18877859679382855,0.3592491565134564,6.530372834064285
0.5238910238342056,-1.5824944779817585,-1.8844908213006826
0.08842208704466141,2.2436018945826404,-11.758349879382289
-0.3108861716984717,-1.4227949086263427,2.8725731246679276
0.09740016626878341,1.9223247554443985,-0.028761026590009908
0.3990463456401302,-2.1150560151878075,-0.36597292916246904
-2.77259275642665,1.4053654387244203,-0.8422329652739403
1.9559123082506942,1.6180542690002255,4.195241084261415
0.39009332268792646,-0.8244091213278346,9.244340219585094
-0.65240858238702,0.42258037227288275,4.966151984838516
-0.3909533751876011,0.547480572104665,10.121331898223096
0.49374177734918845,-0.8137944832313059,-0.4413971884780624
-0.11610393903436653,-1.4491176107369304,16.184593242319746
-2.0306844677814944,-1.3177173431407654,5.711098221298227
2.0644928613593194,0.5410082199598076,-5.436940296827768
-0.11054065723247261,-0.08511560251940574,-10.938950567344051
1.0201727117157997,-0.5643010333021604,2.0579680373407996
-0.6920498477843912,0.9667680111664602,-13.065215229226009
1.5363770542457977,0.5080679093914777,-9.733759675567486
0.28634368889227957,-0.7554627263656334,2.3908708037359925
0.6088438344754508,-1.2012015190173893,-6.078874462819542
-1.0452533661469547,0.5232617386880769,-9.333162402269222
1.2111452896827009,-0.5375833685580619,-0.34475046088398253
0.6898181645347884,0.09920486253150243,0.7267789910378988
1.3018462295649984,1.5762989726277177,-2.058340252187376
-0.6280875596415789,0.5023282400747796,-3.7754691905928857
-0.4810271184607877,-0.8622669997532367,8.546427287124486
2.303916697683942,0.16066118981977281,3.424273512868276
-1.0600158227215473,-0.9526449528153877,-2.23426112194696
-0.13594970067832082,1.6085221559487237,24.643219335153653
1.1368913626026953,-0.5615787496032209,1.9383173692841307
0.0977249677148556,0.20727074697361864,11.320051336773298
0.5829536797532936,0.307732574679432,-5.609810031317565
-0.3994490292628752,0.15925046837370244,-13.629409472080097
0.37005588784751875,-1.9585489551365387,-7.917565156434644
-1.3065268517353166,-1.4464210639833286,-2.6800978339811192
1.658130679618188,-0.4523502755690917,-4.96608209729517
-0.11816404512856976,0.31943183333153063,13.363861823227936
-0.6801782039968504,-0.13777921428577067,-1.2004112209610802
0.6663830820319143,-0.9571474731510168,4.614688774411399
-0.4607197873885533,-1.348424319121701,-0.4648115603289032
-1.3342584714027534,-0.4015575444993436,-4.335543327331676
-1.3467175057975553,-0.46847604467972315,0.37996013453515
0.6937731526901325,0.5128364575927566,17.140514697707317
-0.1595734381462669,-0.3263184621583181,-7.679485917368151
-0.13370155966843916,0.6027076564293296,7.669904505595512
1.0777438059762627,-0.5946497697204054,-10.260072516257818
-1.1268258087567435,-0.2559576692142683,-4.596264422694389
-0.7306777528648248,-0.3480463796426194,0.035832059545836466
-0.38487980918127546,-0.7823669669020897,3.263750897269907
0.094351589317074,0.6251186564337302,14.83128627973814
-0.042171451290578935,-0.813595997094507,-0.5008264146453542
-0.2868871923899076,-0.521641509970619,-8.436156065359265
-0.0616264020956474,-0.07311964594819724,6.500419730507697
-0.10730527629117469,-1.2973796559567399,-3.6416980891575594
-0.7196043885517929,-0.3249349583204991,2.3868157093183537
-0.8129929885540773,-0.7113063597427886,-1.1622243953775184
0.2745163577239395,-0.3881541924822496,-19.434568512868225
-0.8909150829955279,-0.05992800267109062,5.082991855939731
-1.1573552591908536,-0.7999136231406647,5.8336800682129875
-0.3122922511256933,-0.2200757798203556,9.266047683086054
-0.1576670161638159,1.3086687523521792,18.004627624602275
2.2567234972982093,-0.02579855825448711,-11.951037734634758
-0.7047002758562337,1.1452621730192247,5.165074442817595
0.9432607249694948,0.3464944420067607,4.092949966409554
0.7471883342046318,0.7741606098188164,-4.190819928078221
-1.188944955203736,-0.7744589687708259,3.971062364497788
0.7732529774025997,0.10490716508551272,4.9964695511196595
-1.1838806401933177,0.1339129226154759,-12.186838299771969
-2.659172237996741,-0.6126257388749357,2.462227612764322
0.6063195243593807,-0.8228283242942818,-9.179843060046156
-1.7558905834377194,-1.4902653879072982,-6.518564999305905
0.45093446180591484,1.496139636951632,-17.747448151886502
-0.6840108977372166,-0.9724028893524976,-4.7336092550247875
1.6595507961898721,1.3462210732223001,-2.0357067147347694
1.068509399316009,-0.4674931736578535,5.498568672963908
-0.45338580385138766,-0.8624932997247339,0.008999266711071546
-0.6878376110286823,0.6225191403049977,-15.422881507996786
-1.2140774030941206,-0.6311919417468571,8.621480568842673
-0.4409226322925914,0.5684589189242769,-1.185866235500923
-0.2803554951845091,-0.3328117648522096,4.8837059042965745
-0.3646935443916854,0.48042449611778676,9.659361184597012
0.15670385527236397,-0.9681860639071049,14.226047489690348
0.5785214977288784,0.8313510579847683,19.612269893650154
0.349654456993174,0.4879726826630046,-0.7223875867166796
-0.764143923906443,-0.9196506900626618,3.1112444609365353
-1.4377914738015785,2.6429357210147417,-10.783610908167798
1.3645318481024713,0.540123026400494,10.61600170035261
-0.6894491845499376,2.2904670705305388,-11.848874445717696
-0.6522935999350191,1.6002678187487591,-18.05251688630421
-0.5211893123011109,-0.1888347802177838,8.303860053403918
-1.8430695501566485,-0.4122717546045429,-5.216965249478154
-0.4779740040404867,-0.4034591834208012,7.776072813422404
-0.47965581400794766,-1.8300285504278102,4.080746493461687
0.6203582983435125,-0.6958351193495473,-16.300026510237085
0.698457149107336,0.24676602397997058,-27.196793643226144
0.00377088908626934,1.5259575608848084,-10.966017470927191
0.9318483741143037,-0.7727718829782021,0.1649148698086454
0.339964983801262,0.8820565993630106,-12.217763346947718
-0.01568211160255477,-1.252593341503319,-6.527614493487129
0.16092816829822298,-0.5863200252111324,-14.589407305973253
-0.19065349358139935,-0.45764059428952597,1.6987795979692444
-0.3948495140334503,0.3718110814974935,0.908259270363252
-0.26773353689396645,0.45730964672081126,-4.8139262404763326
-1.1280113314700069,0.9623417448143452,13.970653013137426
0.280441705316296,0.7708369604049367,14.977150273195633
-0.9931236109295807,0.24316821540249173,5.65267202536451
0.8416312640736364,0.3903649435086224,-17.997711814667447
-0.24945858016094885,1.5885306910975325,-11.046901472056094
0.04949498165009074,-0.5109261812322631,4.071303310832482
0.49383677628095635,0.7747283190671621,-6.285575802445898
0.6433144650629279,-1.8081439264982515,-4.870914317118235
-1.5706234086334527,0.4113342428976086,8.9896739458806
-0.20690367616397173,-0.4832495424791074,5.108748218924175
0.8801789120807822,0.002571182431510025,13.141544338139488
-1.6981058194322545,1.0400862450537032,-4.292092966464773
0.3872804753950634,0.16464380952639762,13.752254204468972
-2.2555642294021894,0.8851875412089273,-5.541312470844857
-1.0225068436356035,1.4737648151384048,14.99491490138763
0.0386305518401881,0.38909396886572056,1.0583464361677868
-1.6567151023219537,1.1710410646204883,-8.60509747109608
-0.9855107376841507,-0.3265609776792077,-16.31219507653533
-1.4718350074635869,-0.008209882269614045,-3.0147231486169317
1.6481349322075596,-0.522619416398478,-2.5623269799543893
0.16422775548733395,1.042977594646376,8.576619101224521
0.5672902778526694,0.4140913537935951,-1.1059050280820728
-0.2226751005151545,-0.5072344618949226,-4.324319785784446
-0.35343174875719907,0.1546688336463322,10.770374729475364
-1.6164741886510325,1.0415683888185818,-2.248265612701515
-0.2918373627478628,-0.039267991037953184,-5.762418162269032
-0.7614922118116233,-0.9489328108497634,5.746089172925728
0.8579239242923363,0.1319117557874122,-4.898282188472669
1.1411018666575734,-1.9805655910689397,6.588021416915129
1.4665787155741776,0.768770644399475,-5.969171117831944
0.852551939461232,-0.4213275873246805,-2.229591829703794
-0.5986539369229861,-0.46931073627910674,1.5217697558826635
-1.1158969859603944,0.8756956787795067,-3.741263202643059
0.7666631816450861,-1.3651628772251687,-0.13451469357389678
0.3562928174722889,1.9470986428203578,8.154719692400601
-1.7685384506770307,-0.4802420417382233,4.106017913200477
0.35548179274376907,-0.5232509433848951,4.809698500346235
0.8145198224878664,1.021224743167163,-6.354304386192672
0.05892558918162996,0.7086952731104266,8.52829768274368
-0.18505367100934153,2.451229719075076,6.695623405090826
-0.8076484876163557,-0.21120598363152,10.044191922616248
-1.4465346995633879,-0.12040663866440973,-7.263658321861022
0.8002979493400275,-1.4793159799632536,-1.7245859668145704
-0.3091144447717088,-0.33210227734882514,6.335339024604004
-0.23346666154369272,-0.7214312955717558,-6.088151174171314
1.7327211869191332,-0.44876701310549916,-2.2612246976395625
0.6845011068591904,-1.7441877565539552,19.25805737459527
0.3708250012811021,1.660607559894514,19.517610122678136
0.14206180518723566,-1.4166034824256406,12.399405498273602
1.5199948607657727,-2.802202798391713,9.385851362497682
1.7195893074161945,-1.1884244215830193,-10.192511495051296
0.9295051114795281,-0.603839552796151,5.125622314261223
0.5822245913979243,-1.1495540632571182,-3.5911659506588522
-2.0946030712061448,1.0983035407325124,-10.585718976053677
0.12372191423350658,-0.13783917859609385,-5.0900583859132
-0.130106954193704,0.025385604406458987,1.1566507404634656
0.09395322938556872,0.6103917643054128,-5.473555742986664
0.9430460873225178,0.28601252697811796,-5.507994257068401
-2.7396771671895563,0.978567297446043,7.920414984229742
-0.5693120534701851,-1.1094775536361452,1.4410648512323183
0.26990435494076137,-0.5475181006794317,2.33458079662318
-0.4668455460527625,0.6659671460695378,1.1187239689629835
-1.4169061131262595,-2.53455446208423,-6.757031433716509
0.8689634868967954,-1.3751844793172407,-13.705719179606884
0.27687190584612803,0.5009922321799466,3.1056471042047846
-0.9711045704444846,-0.48024903499492544,-5.070366321254438
0.3148172045158238,0.9361075501096976,-20.10782268585878
0.8215857120497958,0.8091802968531627,-3.9256725796515246
0.005292646299360854,-1.1980928801910382,-10.922179413406234
0.8005648034309968,0.4066570874668812,6.986502343077553
0.07826017516166135,1.2016978556675064,5.2162522724034
-0.39522898265435435,0.1474344016509719,4.968931448384696
-1.159420516399913,-0.9774648772458692,-6.65041618158691
-0.08593076697161273,0.87938994191337,7.31551581862154
0.19429293804577166,0.6354245265539955,3.19649783134073
0.8758327615873309,0.5426107834987963,-4.098545384398195
-0.11510746848722672,0.7159388934369917,-4.533374321385169
0.4574156062209908,-2.994612860227619,8.927081528737002
-0.9646120137337284,0.8809375610809715,-4.736040569636581
-0.7826291558275251,1.8081318105789754,3.036564735262783
-0.11038929902688775,0.436638474629293,10.339569868127835
-1.0546284639850139,0.19272899649972683,19.093426255571085
0.8202478373246812,0.6964386733914393,16.638731244377297
0.4631303293186071,0.3382254736851153,9.008227642090299
0.2790957643924534,0.651781261700616,-15.059113515713872
0.33890412521594454,0.0014710002454108063,-6.890484294179712
2.0210435614847975,-0.7667048545369003,-5.480871874725356
-0.46886418796679563,-1.0043227122146134,16.53149832565321
-2.201441285500558,-0.9981917282318641,-6.993179409720909
0.1993001968964652,-1.3730425509508952,3.8616637709836916
-0.050603540961665895,-1.0677420110191065,1.0086706325731178
-0.5175190425104033,1.761266127419863,-9.35127209437544
-0.9788298593587699,0.7540956636562427,3.8182400961938385
-0.43918952180214793,-0.6250273906846713,3.982960861974925
0.18133842921782128,-0.3903926939855081,-12.557748817415016
-0.5028167006425383,0.11255753090645429,12.228774470534098
2.4124536795437486,-0.6555450294843581,-20.865100288551876
-0.960504381633148,0.06751685717432486,-5.90757152909962
-0.7931173627076716,0.777604137902912,9.719702938655756
-2.2886200400145285,-0.035742733548173485,-11.932578334740391
0.251484415021537,0.33601574266199213,3.5026591956203
-2.01640662779976,0.8864915393596159,-12.963603882754299
-0.5394546333745014,-0.2721317560182082,-0.9302414444422329
-0.27567053456055696,0.28479059913436316,-23.137731131722003
-0.7097279658468882,-0.30937759288336136,-8.425717017130081
1.738872677454511,-0.0285288698344164,-15.429214471542902
0.9943943913154989,-0.32473026508296,-4.017637421265007
1.3191368763015756,-0.5288698535561153,-4.1523139582165705
-0.8824188185499185,0.17371185298702344,-6.736641713091397
1.1285940645145685,0.5665453158182124,7.979131965667455
0.4960009463439622,0.14630444600104425,-8.868796038714377
0.7714059486768455,0.498726958311932,6.343866731890512
1.0294388287827672,-0.7379317802412299,16.292757699588616
-0.9087632459590531,-1.2037351921997794,1.3906415030468255
-0.4243176209779015,0.41704350296760356,-8.576702045753997
0.8625960113284511,0.6878813911747546,-12.493385148615424
-2.655619092974933,0.04985726659982265,-7.097851001194993
1.5133280825732052,1.3480357804247187,7.04642720749891
0.553132064207584,0.9076987979878987,1.555907349688975
-0.045703960660234855,2.6805708407690005,9.367952162539888
0.2205076557571733,-0.20080851399566557,7.70330879327212
-1.0299352833089765,-0.9988487960953681,1.4081065187823592
-0.34994336458910474,-0.7401367907395136,4.734882616664622
1.1002843382203737,-0.5654978063746563,18.55246209420479
1.2980219723262212,0.4760313834381145,14.156562261746801
2.6962240525635797,-2.158068563961257,-3.0274601690425325
-0.07392466628041514,1.3185510180908366,9.896794419358903
-0.6585529668050037,-0.23929659114234414,5.858508058179356
-0.5142339659399888,-0.24679355778875178,11.363880775397394
-1.0180418752873648,-1.0793431660249952,6.716165720359097
-0.07785475594085076,-0.11422555145018021,-9.7416743504299
0.38273243001226814,0.013239767667533552,-16.196845653727006
-0.03424228053195387,-0.12194492760027727,5.726270172050857
1.0963468456657985,0.3390592559424304,19.02618198369831
-0.23421580134453654,-0.5896320419510298,-7.7566410793997065
-0.3474506524985633,-0.8958157604108271,-1.8808973804965021
-0.5812684768603252,0.5483281304979799,-10.357477261952129
-1.6326345262344952,0.09866745381579567,11.778295047056599
-1.567767724308454,0.1971810551973674,-23.051668550435206
-1.1791579306376878,1.0590272544419663,-22.636603010358087
1.3014280716647608,-1.0225643912606857,3.750199198201533
0.8952602728899299,-0.8552404572508642,-0.8234364679135211
1.3749640663929898,1.2572196508289941,-4.796230150738065
-1.3322116545945017,-1.4828833575740425,-3.010947865234137
-1.9686246897860202,-1.3094121463310142,5.369879144563616
-0.6600563201340829,0.8178618311849958,-4.138039890496651
0.175818953296028,0.23820019202203863,-10.969249717331135
0.4986902749098275,0.10523213705927585,-9.273629280729663
1.0479721559680528,-0.09165940810038319,8.883388619968427
0.2842796708072146,0.03126754702756948,-5.247419549622203
1.7426687806556311,-0.09211211469195592,-13.852775837671983
-0.22260568094832048,1.3554427025944182,1.0217832694397073
-0.9130792180417964,-0.3981481287500751,5.049947217800112
-1.6812182154944335,-0.16137353627777917,13.289607475532234
-0.8889713580954499,1.7944488052250736,2.17903387121669
0.242117960985123,0.0275097020298358,-6.597112472096701
-0.8887202573536308,2.2320163895251777,4.740078672770297
0.9367424635352571,-0.10497970101895356,7.271748700204364
1.412327706037443,1.3674149824601585,-0.3890530666380676
-2.369586905226603,-1.6553440383096778,-0.4459939272557343
0.8640523004976479,0.15364446081566638,2.601329049387677
-2.2396040586617367,-1.5844735631509355,-0.6985649825618424
0.4014990550902875,0.8444543066045863,2.5011390688312556
1.2248705641936597,-1.2128678162090247,-10.219133244269283
0.06485610634357618,0.2837695543833455,-11.504377698185095
-1.2796891732042395,-0.2821958766904351,-8.36111379500769
-0.5854312042777726,-1.1582031851840289,6.422109433294258
-0.2616454457109007,-1.6193599828975425,2.587975673406087
-0.18224478378994294,-0.5110404635801098,10.402389642495587
-0.20289684076666706,1.7406294458953309,-1.8669092211460994
-0.1098827793093138,-0.2934850548893775,-11.436413958418497
0.2134800489101689,0.917221542115856,11.44553535284558
-1.2085736537332212,-0.05704286766218815,-0.18767055539892924
-0.2420198298702195,0.8767267736904524,12.834550362665254
1.5182611703557054,-1.8269113783045177,5.979464913921806
-0.38464542314251776,-0.40318830684953333,21.886186788228372
-0.4438360931551978,0.9494055237932187,-2.1977298571336235
1.0781973037142378,-0.16325494883317873,9.007239050891807
-2.5591846663440965,-0.08645528271104713,8.91364106352944
1.1813786012882859,-0.43046191188579297,-5.5512634549444995
-0.6319037580051673,1.149379383367124,-1.7248231710696091
0.16392857245258663,0.2975143539549459,-14.61738342216723
0.09632135592119682,0.04402227617534797,-15.487961370026657
0.9424681192203938,0.6430545453392927,1.2656880153077497
-0.2675947462353477,0.5882249291179367,7.9300707069742735
-0.6780257815644504,0.2125870464375366,6.380240334954549
1.2978457906510987,1.5470314969908445,3.4002459825965263
-2.36417381714118,-0.06028753363911904,8.630171531510914
0.02033418170524325,0.278081047967944,-5.896977956993248
-1.3479254226291204,-0.6429525533528905,-2.725327484877595
-0.761573388256559,0.1501152270061292,7.375215134138817
2.011256681463137,1.5877615237453675,4.331187294489333
-0.044595426455857026,-0.6432576017887388,-2.1018881379676233
0.19506969715138117,-1.1335928256384589,13.207943861279146
-1.7815628557055914,0.9967596428198156,-12.920012510471274
-0.7290446587946957,-0.14876615223367926,-5.186786872885925
0.19655740072878491,0.09600420496977001,-2.833977744562524
0.3547576931132181,-0.045113303693334814,8.165348797737703
0.6168865543932788,0.07912172392953508,0.023851979152351623
0.008627898917576322,0.8505306835234382,-12.61491746790615
0.5270042084546597,-0.8391241905992737,5.140041798160635
0.453781912635684,-1.0117740841054885,10.875463154668946
-1.8297404110045314,0.08496813703770767,7.393045331330263
0.03700572191014953,-1.6064396894498327,6.191549216054889
0.7679024077327037,-1.3730535360419285,-18.743134967410683
0.5898798207345195,1.866683148331627,-8.998864767434844
-0.3638588099707899,0.7574683300614039,4.820806086722011
-0.8056265075393678,-0.010056471869014538,-0.5488818475438849
-1.1183119243216322,1.2380069359584398,5.22557601998812
-0.13105401154141233,-1.040599230085145,-12.663426769629542
1.133079879559722,-0.3156031233858582,-0.6149476428488614
-1.951804101481602,0.6234536094243824,-13.897810188962067
-0.659891729729498,0.8906716814313947,-19.536785626194064
-1.139802455426774,0.5129168468277764,2.957790885068872
0.7849575212405001,-2.5412388076882246,8.425887964569803
-0.5543096265713009,-0.968082117664578,2.456164279017758
-0.4706376581547914,0.47706809235686526,-0.32996480264666095
-0.216949569936649,-0.35595149304680634,-15.620143418292663
0.4453932508947973,2.5402316207591715,10.061070670975472
-0.39238899814963674,0.9265583009670965,-0.4404489737594127
-3.0461430547999266,0.5580818806186658,19.59562005205768
0.5433118913875197,-1.1169495537467236,9.423143082769666
0.43904295767204254,-0.03529673960291556,-20.051254266521482
-0.21954102833121325,0.24120396421895252,7.550496802558879
-1.0840366206719345,1.1277836301278024,-13.965352375731573
0.3517801106813583,0.8811310970996323,-7.59495490429064
0.37923553353558676,1.0329891945199456,-2.507566767601495
-0.4700328827008748,-0.923912015810002,-0.9406245036260366
-0.21673147057553863,1.4121516982986309,3.975652156174662
-0.9301565025243212,-1.3804307523072692,-10.22855040804214
-0.17858909208732915,-0.5359145616661618,-11.506920042566469
-1.550429345083481,0.43077113494564145,6.006052017330761
0.4173188210318355,-0.14989159173313932,-0.1325026793402666
-0.9443684908242939,-1.0060368579203915,1.7437304870152561
0.23810314783231212,-0.8215498256031326,-21.9368335169466
-1.4059629162678993,-1.5482543228490424,-1.7713738331532356
-0.5900576458695397,0.5319746390071913,-8.907291830614959
-0.11048940506592783,1.2605688450421493,-9.206263730168693
-1.6606998118692633,-0.10039350340136602,9.219348042245775
0.11514787314009216,-0.4003488150134234,-10.956712289725123
-0.37914756287992274,-1.4723229284664896,-10.928966063260301
-1.7423561978092306,0.9132019242521776,-3.310106034017459
-1.3032427541123157,2.211304333239493,4.502888306473442
0.6051200840821667,-1.7974558043668976,-8.840147297480861
0.895555985551324,-1.0634329381546068,12.341440357800614
-0.13190863977996706,-0.6795930425441441,14.498475253612188
0.4047618120404975,-0.564317909682489,-8.814470664684638
0.2238435633129107,0.227345950143481,-2.450817555768556
0.32962298212773805,1.6142495472802274,-7.786754726576129
1.285984007080293,1.0085972868601036,-16.853821048712273
-1.506998398214272,0.5275973827743159,3.030110504561574
0.6764607323616232,-0.7239287040586021,7.3359486822936955
-0.3820089555778202,-1.1196282336804544,20.118642631265615
-0.22425893425164034,-0.7967753063063009,-8.97409503631337
-0.30224973045507003,1.5480668013787386,13.36235090812621
-0.37514711666128386,-0.06174330145790107,13.423536912579532
-1.226196191783019,-0.4468362536626212,1.9785330956715308
0.18333919925760125,-0.18375573024999226,6.021634895760638
1.6709430327888573,0.8246182196384677,8.732730483007035
-0.056133020448757114,-1.3128496745497917,19.740999482418996
-0.001385042735095726,1.4148741359224224,4.778085626164694
-0.6872990371566635,0.15647625694629896,-0.6013788550368522
-0.11747454641811148,-0.2163439782957261,-8.661687990074721
0.46616642603403075,0.442846113746739,3.0532075501249807
-0.3702424407043429,0.21839707312993703,10.2416493277307
-0.45380404105200106,-0.34419645646738123,2.4461036132947194
0.4032645401632468,-0.2527106720416067,-7.79923248925003
-0.9180047698190454,-0.8688625468659522,0.8907620249656334
0.2524966270768724,0.6563907508593024,-1.2915348246011389
0.8203217972614217,-0.5319938094111618,2.6473875775570725
1.3599485416794843,-0.9562584224322828,-16.6184836721825
-0.09038200727694681,0.16586352265353732,5.507886141027313
1.3675972398067135,1.3291412827455533,5.954231567637231
1.034409886481518,-0.048344623779819615,4.448534381865086
-0.9962126403710662,-0.6081012569516899,-0.03762817145024025
-1.217938511593151,0.4038960208359738,-18.059362626034215
-0.30496363785442043,1.936712462402552,-0.1932279197126341
1.0289354925948542,-1.4519055294317473,10.607149993421697
-0.0722870075600049,0.3822027877852936,-8.601288762924614
-0.6006575576577885,0.2050866252318538,-19.892694661612836
1.5522431800485608,1.1615338035591172,-15.405579718706937
0.2869044880033464,0.9909091736848452,3.140256918206031
-2.3205942757907416,-0.18670911180977923,3.7287600885243757
0.31716062629268876,-1.6845172554248828,8.86293194621468
0.5200406145708678,0.8065637678962596,-0.5525899572965248
0.2256086544711038,-0.8351926901914831,-15.003283759785706
0.44971210023199254,-0.9467404109571895,-8.185041405936758
-0.06727560892298173,1.1483505806911263,8.188393725993478
-1.3183958696447342,-0.9108503776386525,1.404959074394759
-0.37070400322045344,1.4028447401002433,6.498296346799787
-0.9456157955562914,0.335844721405313,4.347888054610397
-0.9327409107943778,0.3191184000862824,-2.0496055173029593
-1.2630683491022754,0.30726478050559103,-1.740068375080337
0.45248909263964643,-1.6384236257417921,18.571022697558597
0.0978961454126271,-1.7763886163465759,4.146742666092209
-0.44816536268070806,0.2155530537886848,-1.285875503163606
-0.6493379277303881,0.5680073592264201,4.554199909368095
-0.02342310502145217,0.08261103215620101,2.2290581962427334
1.0791947281124892,-0.8215345170195275,-21.573563734944614
-2.004215715498915,0.018922103882194737,6.500845143723144
0.37687652085089274,-0.08203415314548415,18.209392740896753
-0.5457119740177824,-0.9571580982754103,-7.80279868390064
-1.8845858449794477,1.0139721541121614,14.54035748839167
-1.9457030831639588,-1.7302760615500858,-2.5686969733191694
-0.9127834941352918,0.5887424068075064,2.9347139764982226
0.21950955579304526,0.3843234052112453,10.70360016973174
0.3930629339800916,1.0097118548117143,-7.200014312908092
-0.9389815726777853,-1.0053118723488588,12.424939128184713
1.0170209914132446,0.101407146668211,-12.142172813593392
1.4229834965161061,2.171164949318166,-8.751547489139163
0.3960865849565602,0.6620742889997063,-5.935203173475259
-0.5914026678081108,0.10058120872896319,6.620053664519022
1.1244191845103682,0.5391612741141966,-3.4087441056947076
0.7553956956633383,0.08617684238012002,-15.199744595858679
0.867407411354918,2.19089801323984,-2.165328718498284
-0.6564636749715315,0.9836361957891795,-7.842213825343839
-2.8345545052747023,-0.08561495423049709,7.312936208403685
2.1167910214836754,0.25233143138452124,-3.4323505445510327
-1.6108784034499337,-0.39079799608101357,0.7077407590065137
-0.03576807186022113,1.209850126410305,-4.054724571406713
2.3807453512197503,-1.4061047713910109,4.3393896823028895
0.330576756274374,-1.604738529860987,-1.835907634705542
0.9492464735582357,1.4587147496759936,3.251987146870653
-1.5023965693817127,2.1531197925705827,-25.933885647417103
-1.7776669547337063,0.4683049076895917,0.9725087697778614
-0.5327027919795545,0.11273794123573726,4.1391367011023315
1.0907497344345,0.6572676903047773,-1.9928005491459202
-0.34624944764730997,-0.6470535263827593,6.693924713925414
-0.7946363210714987,0.1712435451522125,7.386070289928207
0.19796728994496746,0.03890870585621503,13.04213891849503
1.0819352184772653,0.6265642507453606,1.0481160807228165
-1.4449401990733717,-1.5579985281833963,-19.138007046699812
-1.2105429941233516,-0.5070347697653375,-22.85499448789645
-0.7886692545093662,0.8449956030008372,-16.018409520745177
1.0946383747120914,-0.675593827630063,-0.379070611841362
0.2348215259487319,-0.9933613754231354,-1.5730528828056567
2.1321534105704436,2.042072149826954,2.7623985201997376
0.9364457258311158,0.03811800017940036,-6.252459225571738
-0.03509517686967038,-0.5789181399432078,-7.364911715057483
1.265077838088766,-1.6923704374741084,5.550479424104341
0.21149701273187801,0.7293463462804262,6.559244113725019
-0.7049213525074449,0.6991361537186938,-2.5665013548048083
0.6799748442451024,-0.29875960056993595,-0.384766582389533
-0.6963266538610828,-1.1022301909070906,4.043143433289911
-0.29039710080386677,-0.024549423642379036,5.0434357516299455
1.327782695957983,-0.8358560674816213,-11.439806995987404
-0.10128148621739935,-0.9420935888731159,-7.1957385591795076
-0.8031413873416283,-0.10321275146170758,-12.305460456453867
-0.46433769143549164,-1.0513903986600646,-5.069066148368306
1.021790585588673,0.24664895525244618,8.12333589341831
-0.5525406734167292,0.6079925094063973,5.462718669437655
-0.38687084685064654,-0.8396324471731914,-10.980979603625586
-0.5102927396336285,-1.3682450953383907,5.122667268259819
0.18392549434030994,1.561279598955807,0.8584310534245199
-0.3854897603756083,-0.9402702359572048,-4.939267070859207
-1.601836048972537,-0.6599427051023377,-14.064596551036313
-0.8871809418450403,0.21301716742988736,-1.7482337161776695
-0.9327890415064383,0.599369372522297,6.799440061159555
1.2433193844551549,-0.2563168936896428,-21.630976483961255
0.8126740421090424,0.46079432770125556,-3.961231977514495
0.587259379399826,-0.400986157896401,22.542836988049622
-0.5053583172644099,-0.9711706648243907,6.726367185680938
-0.8157915419939713,1.4263168607870274,2.59832495003476
-0.507517601657357,2.488441614331128,-7.3718516957091405
-1.051880102551674,1.6959695330141693,-6.783298378739698
2.497200391587007,0.14180663915345446,-0.8328839569996337
-2.245321648371402,1.8334353618156785,16.02863629377136
0.5640085350738091,0.35570351572398445,4.655891908949305
-1.2845522979925272,-0.47728627040322935,-8.721583977708226
-0.10434349149469264,0.46637957438197886,11.767869623838639
-0.9880019424937344,-0.09439250641118496,-2.925942071580907
-1.1776289624826308,-0.9831181837457077,16.97346481013949
-1.1401963009349616,-0.898321971432016,-5.666030246377041
1.7549861537420586,0.8020517387405159,-10.03265756903889
-0.13298842230959199,-1.846531981664673,1.7462957781357
-0.7657021944780863,0.6041367404426842,9.82326983800298
0.555786964082873,-1.6295836027484383,10.374447967309102
0.010349314566299353,-2.121176444902436,1.5919176666881152
0.7200337593416528,-1.8388466037584985,-9.880966879686111
-1.82425665593783,1.9667639719347398,-5.053407218978849
0.3036039044620014,-0.196233964943542,-20.182818683542166
0.7726948371023817,0.08658318016541909,-9.131215375688202
-1.6615982911145637,1.4192550459109512,-1.7845681489726313
0.44819528442331247,0.9341797484997248,3.8900214065347916
1.6961815728281606,-1.3915052694042196,-3.394543214647791
-0.014857703354702717,0.8690063428187611,-0.5697905497773967
0.8214059370248112,0.1841812647035463,-3.9618544474981694
0.6705704503109099,-0.3416780975958806,7.510253041897702
-0.7075056975105769,0.024290914137780388,-8.991129384265388
0.03976673458649517,1.279812020628022,8.375479141463265
-1.5669947108616025,-0.8859664820409529,19.608808125139106
-0.4513030371025261,0.40088567910412115,4.727896560219311
0.2656879749662359,-0.009657236532908346,-5.2709161022404185
0.7231004937377982,-1.7971646153956184,-5.362701440867851
0.024612125247911617,-0.8022531717308108,12.098372221840975
0.7199837301431654,0.19321355323369646,-11.265894258719975
-1.1029062129553697,1.2973420890928906,-9.53804420272564
-0.1016972745548716,1.0013310173467296,-11.644484538704646
0.019279384513077216,0.597212504403425,-12.785138405206862
1.8495912466796365,-0.8152756611364586,-10.44816319379857
-0.21416665620008424,1.801213990808535,7.899049417854931
-0.4990166379941829,0.21524046763961147,11.022825645880243
0.02135122384354861,-1.0063655216785503,-6.970730723601831
-0.9191134448699437,-0.182904980856951,2.073340460456899
0.19275384906521617,0.8962484253561593,7.5915667510823415
-0.36505521654625767,0.007617498318158107,1.0056420309716296
-1.7913275480411837,0.886864686582761,-9.54942757617239
-0.05858655113386085,1.1036939574621503,-14.704017351380813
-0.31754309393019925,0.40053068459870617,10.104275531255087
-1.6324233020679833,-0.857702623046894,4.961794122883805
-0.06713415461452177,0.13545466318998053,5.769558933986538
1.4893559620744803,0.045165855938831004,-11.076469009010301
0.5213037482757137,1.8593463338516283,2.3497719288905192
0.6119271927311578,-1.62632193782683,6.289995874568216
-1.3414967255830426,-0.13482245109435406,3.1403384364714553
0.4768983689222224,-0.5840935467949193,-7.45023216807689
0.14844958138007808,0.3351056201959989,10.122605100653356
0.5290452383344316,-2.437564359199356,-15.27631948178774
0.42262862170882565,1.11492455949028,9.287419248069416
-1.3597807255038137,0.013748487335533657,10.810559440870733
-0.04140081155796743,-1.8447011636280461,15.723303175352248
-0.757870860425166,-0.3611131347398661,-3.4249219025044293
-0.05008409428482209,0.6089623416545242,-9.994300165615206
-0.8974009269018305,-1.5914478754580315,7.9388036230838015
1.3124703671409963,0.003222216443155699,-6.992152790869744
-0.8589723884443423,-1.05747364780153,0.43995511443988783
-0.898942156465536,-0.5559850318789673,-3.1746221716007197
0.07458640654355353,0.02673838267463693,-9.020719714130848
-1.0770990694039948,0.1834502535815763,3.209994661848916
-0.4246633024328657,-0.47074249818272723,-13.920159165580356
-0.8299645975379619,0.27279638953026414,5.922056816440394
1.4111720638896117,0.8179776072548057,-9.669310884567345
0.7858038268311726,-0.2789142751032398,-17.317313464679263
-0.057469518465394644,1.4315677574492909,-0.5010745879029284
-0.39121705217401626,1.4622141707804195,4.316338528112232
0.9409176145751134,-0.42870206558582885,5.769345970532243
0.40520408032288807,-0.6378405564735843,8.183537308271614
0.4980524046828567,-1.6641729851661735,-23.536403996904134
-0.026192237344250482,-0.12656933163938985,-10.051444309566715
-1.6882300277714322,-0.3634377801160514,1.0665229450303213
-0.11246598255955272,0.7790512201329916,15.190032799361454
-0.5324899192090677,-1.5096616060682988,7.837444936747278
0.6450552734598769,-0.27739139174310984,19.013400518481124
1.011842432994189,0.9687443931111454,-5.249394229139989
-0.6579510447611686,-0.7303570955579599,2.7441699528200862
0.46838523427705164,-0.7623615367276093,-10.999708075693071
1.7358789976857132,-1.4469403347558085,-4.043522196239998
-0.667712720570559,2.6205738460182393,-7.352957182829735
1.6819217400731377,-0.7474731780653794,-6.339886593167213
-0.852585847170647,-1.3003468322183391,-3.9344912118566326
0.022959755607951444,-0.80385040403152,0.02717539890680891
-0.011145611841841251,-0.7742950804868045,0.22212664516484087
0.011498899870062375,-0.2693897784512403,5.434534395827254
-0.8376780419079453,0.8253722320875148,1.3998846738685935
-0.5911831037644297,-0.2983231689958337,-3.4404562884962537
-0.6677202863593994,-0.9228233149968279,-5.225785415319466
0.3269625954044574,-1.4513384981910251,-3.0713172015868406
0.33003511451031164,0.02185735821987137,-4.490371414469656
2.225944331738259,0.04253907402979072,4.9097105518197965
1.3709890062911214,1.5309323510288246,8.655251906712625
-0.5098432421384791,0.09244773546980858,12.740445379470845
0.32486961579618606,-0.09900831128407737,-7.977027599404173
0.9971179807917595,-1.0506538365874896,4.6937222533875005
0.030601824338517807,-0.3059525750983919,-13.946796415926757
-0.06964157844693558,-0.43847445803460605,3.7317471825257815
0.05157494276988904,-0.37016416451370254,10.826722820910646
0.8672766288084278,-0.9592553926405882,-1.4958950166699498
-0.8483205228052325,0.5383296032761768,10.726360472588732
-0.32566946882017417,-0.14244541750936937,-11.385678703154767
0.47043314484648185,-0.2003534800049874,-8.886452830916367
0.3114470715541555,-1.7140461160489964,-1.3580984264368654
0.23958275985639133,0.4936440875248639,10.222103545858243
-0.3698011663038032,0.48701532598037944,-4.174294563419882
0.9725357891425369,-0.8391294028422137,-4.535531009087746
2.1338682472045374,0.9901213838791937,-9.916283583780206
0.4064154936762062,-1.3647582300824324,2.028810444426216
-0.1931767015498399,-0.021869908789079875,12.466951408944356
0.7557402888945426,-0.2712073398901639,7.006801090936924
-0.53913263675299,-1.3171747888057943,6.966506543362647
-0.7496903447028966,0.18970261207999575,-2.0697447492366403
0.0328087476137118,1.7025701522417913,-5.6330935926391446
-2.5827966329699446,0.06763423006691976,6.772459164163703
-1.1539503636520094,-0.46302175410905094,-0.3191107563414087
-0.34796185592084583,0.44702415688567826,-1.7360823571938175
-1.3533888581477134,0.10571999546715494,8.982406224036156
-1.0326431018921296,0.027762131625501486,-1.977874516727299
-0.4367483374580074,-0.42554221277144805,-8.377762593852058
-1.6429652935306092,1.4219755592924648,9.09188495330966
-0.4060717962598319,0.4563633634807854,0.8071989043386668
-0.5352701645328445,-0.5286706589354886,-10.37029343848692
0.025405208385016018,-0.10800383678095793,-11.129058948716162
1.1541840304940192,-0.7408667042040726,0.9541187582686682
0.1725044164928659,-0.608291150081495,23.374096614782758
0.021062021342063624,-0.640725724190199,-3.9282060354620847
0.09945445703071175,-1.1343115937222275,-3.362738590855785
0.22739277512112846,0.7772769637679554,15.237711976170534
-1.016738648609769,-0.29104146327302577,-0.5728119979051539
-0.11477532477079817,0.5541275783267697,-14.484668632479883
0.3087512418366131,-0.6701258977272965,-15.727964525481733
-1.3707599825430605,-0.06036249439233865,12.266639737874803
0.8656529228158533,-0.7110405967911112,6.663545422501889
1.0813760344581897,0.7196681705373317,8.261257084311929
-0.6313759884493888,-0.24841930670503823,-0.5775655837871275
-0.24133779145310455,-0.7308735859513859,-7.267120259827976
-0.8781903428100731,-1.6417032288097841,-2.1716311572416696
0.6993804835878171,0.2756665493407744,1.3603121737437676
-1.0612222874459092,-0.7083850523381071,-8.38311155698701
-0.2224770102429203,-0.015779217120995174,5.614499095511267
-0.8589199078076716,-0.4917301080135276,-12.595961687997214
0.050954277011289496,0.9541895808987649,-3.3275876457522373
-1.794229271489721,0.544144752358008,-2.040078724765029
1.3264616423656934,0.4472120874548315,-6.910198131753686
-0.964606424206264,-0.6161211233234792,-22.05505355019822
0.05989468311627605,0.4662900435501895,4.478696641112526
-0.2125230447703092,1.714831608676043,-7.557507604402671
-0.7621145119224981,-0.832186034150062,13.257079593243715
-0.8877801366359354,0.17233913922918878,-3.4198227768405225
0.9363985435524596,-1.649216974417132,-5.413595884312206
-0.5256405931019397,1.3985620921255355,0.9152194677887708
0.2711701846373109,-0.3979120985908414,10.534397486304481
-0.8014968853943748,0.7825788808419775,-5.634076631181697
-0.6471814318477607,-1.723228250716323,10.147376948297769
0.47224715008784873,1.7975393871259047,14.403036410176227
0.9304084961111163,-0.35687152802559846,9.903228106559455
-0.17531640232701995,0.5456573234700275,16.26431490992257
-1.4219198716404369,0.1508182063325938,12.926460210124688
1.9979560797500047,-0.2554707861877694,15.148822938930058
-0.8565493082342095,1.6857923026593036,16.043263194156413
-1.5415873996717875,-1.6480462063661798,2.080695296299638
2.594424587768152,0.29871365999200894,-4.292238995721983
-0.40403229385093714,0.9106456722299703,-22.622436352438058
-1.4617326882614081,-0.029856121636366265,-13.227331195217957
-0.6834397667886818,-0.1181707843665918,-4.482827991587956
0.36754489602226903,-0.14268771207346503,-3.81735087240566
0.1903115575939397,-1.227636420410408,-1.527944634020866
-0.85172919725359,0.03812738409493465,-10.0076049024875
1.8227236001279594,0.5127175234723987,-15.95777611441314
-0.5215796779933731,0.06859922748066052,-1.302231664667262
-1.184686590411552,-0.2722761011450806,-1.8941792881179058
0.9606933984606597,-0.48972502237302673,-8.07554041549866
1.3290628465396823,-0.27929666927837216,-7.421521616503846
-0.8174930976162265,1.2577442174960383,-9.401565918724067
-1.4013472930393105,-2.0866349794205425,-3.9652373901631774
1.0304382674156047,0.040071456547775455,-8.563028269952513
-2.0473236130579617,-0.32775491729641676,12.598753315170155
-1.2266216593966155,1.4558079518368434,2.4099673204512104
0.967446150050235,0.05549222544380277,-9.723179180265172
-0.05535254802238957,1.484925598699954,-2.8044778146745415
-0.26393734859268786,-2.123890018045559,-11.802856063511907
0.35281660649437835,0.4595849048340562,10.121682951747879
-0.15277442354540868,0.28005786003768013,13.841867245808201
-1.2986867221630902,1.390533967073938,12.520019827530312
1.2760753460061875,-1.6413486088230291,-11.446926312425976
1.3250140528868153,-0.1550358081183258,-0.9126701972617591
0.2053325637779597,0.06606026178649259,-4.015706755129159
0.045134015432010274,-0.4957954945452093,5.6201310591418165
2.339624806020058,1.2165777137429403,-10.07909803283898
-0.2764328450158372,-0.3386821854453976,-6.758916940010166
-0.25957698183403943,2.0347625440211536,-4.1321702835180805
0.36448124924050557,1.0541779089389227,1.5328846913242389
1.4713219561423383,0.9508336970037996,6.941287081378864
1.5927707544174836,0.5592989813908843,-3.287276927366078
-0.25857263167677125,-1.063695591025548,6.639650755262219
0.30833124595934525,-0.4310963375107571,8.220763567971378
-1.3780834670640771,0.5727513668572158,-2.1321523687182102
-0.31197610791621294,0.6775570335877171,-12.456581328655968
-0.8402903954793065,1.3071838450812574,-11.711903354341404
-1.0068317522989838,-0.46744100962590635,5.917269751515683
1.6815767162673276,-0.8601533849246632,-4.762244363146694
-0.7922866618061449,0.8591041927855306,-17.12629322682455
-0.5316059080114549,-0.8096265760401127,6.129523681830006
0.3658487879168582,0.8733118360704122,1.2955452054621897
1.2978252669735855,1.1997361764150378,-14.059670811426283
0.4811151263888354,0.45615303582705535,11.794199812026458
2.759355114021582,-0.3575790319685979,8.366359871577494
-0.07466797825114957,0.04108222614387957,1.3874525129017932
0.25871644022974605,0.5934659196032391,-12.74319367734417
0.27560067398405635,0.010185518712073464,-14.023305328852832
1.4350493867891545,2.1982963386704926,-3.0706848684143653
0.5072389511096153,-0.9906709306271492,-17.139153895502893
-0.1162297003871491,-1.002668587369791,4.050802731844854
-0.9474885949068795,-0.9768953867353252,-14.108233133803365
0.24444345596163258,-0.5895799225452156,1.649127292546986
1.4013448312919596,-2.1789315201949093,-2.8813145272672642
-0.4103817936578706,-0.6296504269401813,7.117852680970441
0.5289436184165822,-0.653284701927889,-9.379475952614882
0.24614778868484416,0.07851402517417629,2.73729449524724
0.8635196583813146,0.41780058320608143,-13.948401928346435
-0.8047537406378693,-1.2402163364077703,7.95549551769407
2.3466470305265617,0.9000542427640723,-1.1496176627749468
-1.2791611070282582,1.8022422297905472,4.958506689654304
-0.3655510899860373,-0.20828510309499634,-13.205253468280322
0.9380925409056455,1.5743712374755716,4.990842756717665
0.29673317249411335,0.19898949440518773,3.062033963037085
0.8299861590811032,1.9887319185953911,3.6369789271336312
-0.49610233398256237,1.1172834656881903,3.12633963013986
-0.07480498268034107,-1.5639046348397663,-1.9346388279034774
0.012231983638817386,0.018627370661355457,12.41299220315991
1.5692596145359043,1.0543249749040777,-1.5589798576570357
0.690429024383049,0.030546581040616888,-7.391692003908287
0.7966721083646714,-0.036883530845066945,-0.587261933689386
-0.6579260925367952,1.269764750314304,-9.505179454445303
0.9688826385630508,-0.709854182146104,-4.63996423330844
0.22558166356880352,0.017515613278218337,-1.7724661618939888
1.3891453156779274,0.3236257646091187,-3.795541206458599
2.014060154918468,-0.33379096035356415,1.9939707280548573
-0.30676577602700456,-0.020129103877537476,19.457613913063266
-0.40630313044506255,0.7750232632241703,5.709498398461204
-0.8640449911023695,0.43283762149999394,10.723006472880915
-0.14357951171632055,-0.8087175319795337,-5.037094373682366
-0.3820254489503836,-1.1041239857992617,-5.870162885051485
0.35950439957101016,-0.7891021802566502,-3.781780468929897
-0.14456681693373594,0.0012484557884866053,8.528890972688773
-0.3615992807816198,-0.15993978775704282,-21.48118478230898
1.0645851361278518,-0.8319574932171248,-10.331647752913673
-0.9378802311514517,-0.5981504525164858,1.0233584683421988
0.43310795315134365,-1.5200392851920637,-2.240923670629287
-0.4059417271884834,0.41785370321732596,19.67729682143046
0.7243685048699644,-0.04001872535163292,4.476832157426563
1.3852615467222305,-1.2597873434052702,-6.621914435304808
-0.3030982534240727,0.02862050418778282,-15.776070685393472
0.44103290727315136,1.3426220105103532,-3.405600349378623
0.17879286573317985,-0.7399358529652597,-13.032200826784146
-0.7994223995430966,1.3151376657209723,4.6675065041843515
0.24078750974193844,-0.3234574724834238,1.6110632224167845
0.28912050527881217,0.19782816784986781,3.2003193209273126
0.4128708204461747,0.09775080242218528,20.79176664795037
-0.19839889682004574,1.4015234160052454,-9.074659814202978
0.09419230031014657,0.1584338467855317,-1.9240420779590675
-1.1476109448431353,-1.1419014192038466,-12.12515744488909
-0.35811407547985674,-1.3109703704412123,-0.8059851615012545
